"id","age","colorblind","correctGazeanswer","diff_remember","diff_understand","freq_game","gender","played_tang","options","gaze_response.corr","gaze_response.keys","RT","trials_gaze.thisN","manipulation","stimulus_type"
"251100",23,"No","left","Strongly disagree","Strongly disagree","Every 3rd month","Female","No","gaze1_cue.png","1","left",2.5214,0,"edited","gaze1"
"251100",23,"No","right","Strongly disagree","Strongly disagree","Every 3rd month","Female","No","gaze3_cue.png","1","right",0.8921,12,"edited","gaze3"
"251100",23,"No","right","Strongly disagree","Strongly disagree","Every 3rd month","Female","No","gaze6_cue.png","1","right",0.9339,13,"edited","gaze6"
"251100",23,"No","up","Strongly disagree","Strongly disagree","Every 3rd month","Female","No","gaze5_plain.png","1","up",1.2017,3,"original","gaze5"
"251100",23,"No","right","Strongly disagree","Strongly disagree","Every 3rd month","Female","No","gaze7_cue.png","1","right",1.8122,4,"edited","gaze7"
"251100",23,"No","right","Strongly disagree","Strongly disagree","Every 3rd month","Female","No","gaze3_plain.png","1","right",1.0134,1,"original","gaze3"
"251100",23,"No","right","Strongly disagree","Strongly disagree","Every 3rd month","Female","No","gaze6_plain.png","1","right",0.7254,2,"original","gaze6"
"251100",23,"No","up","Strongly disagree","Strongly disagree","Every 3rd month","Female","No","gaze5_cue.png","1","up",2.167,11,"edited","gaze5"
"251100",23,"No","left","Strongly disagree","Strongly disagree","Every 3rd month","Female","No","gaze2_cue.png","1","left",1.552,7,"edited","gaze2"
"251100",23,"No","left","Strongly disagree","Strongly disagree","Every 3rd month","Female","No","gaze1_plain.png","1","left",0.756,9,"original","gaze1"
"251100",23,"No","right","Strongly disagree","Strongly disagree","Every 3rd month","Female","No","gaze7_plain.png","1","right",0.5998,10,"original","gaze7"
"251100",23,"No","left","Strongly disagree","Strongly disagree","Every 3rd month","Female","No","gaze2_plain.png","1","left",3.0835,6,"original","gaze2"
"251100",23,"No","left","Strongly disagree","Strongly disagree","Every 3rd month","Female","No","gaze4_cue.png","1","left",1.7834,8,"edited","gaze4"
"251100",23,"No","left","Strongly disagree","Strongly disagree","Every 3rd month","Female","No","gaze4_plain.png","1","left",1.0229,5,"original","gaze4"
"3FFG54E",23,"No","right","Neither nor","Neither nor","Rarely","Female","No","gaze7_cue.png","1","right",3.234,10,"edited","gaze7"
"3FFG54E",23,"No","left","Neither nor","Neither nor","Rarely","Female","No","gaze2_cue.png","1","left",2.339,11,"edited","gaze2"
"3FFG54E",23,"No","right","Neither nor","Neither nor","Rarely","Female","No","gaze7_plain.png","1","right",1.148,12,"original","gaze7"
"3FFG54E",23,"No","left","Neither nor","Neither nor","Rarely","Female","No","gaze4_cue.png","1","left",1.508,13,"edited","gaze4"
"3FFG54E",23,"No","right","Neither nor","Neither nor","Rarely","Female","No","gaze6_plain.png","1","right",3.381,0,"original","gaze6"
"3FFG54E",23,"No","up","Neither nor","Neither nor","Rarely","Female","No","gaze5_plain.png","1","up",2.108,1,"original","gaze5"
"3FFG54E",23,"No","right","Neither nor","Neither nor","Rarely","Female","No","gaze3_cue.png","1","right",3.756,2,"edited","gaze3"
"3FFG54E",23,"No","left","Neither nor","Neither nor","Rarely","Female","No","gaze1_cue.png","1","left",1.313,3,"edited","gaze1"
"3FFG54E",23,"No","up","Neither nor","Neither nor","Rarely","Female","No","gaze5_cue.png","1","up",0.898,4,"edited","gaze5"
"3FFG54E",23,"No","left","Neither nor","Neither nor","Rarely","Female","No","gaze2_plain.png","1","left",4.488,5,"original","gaze2"
"3FFG54E",23,"No","right","Neither nor","Neither nor","Rarely","Female","No","gaze3_plain.png","1","right",1.608,6,"original","gaze3"
"3FFG54E",23,"No","left","Neither nor","Neither nor","Rarely","Female","No","gaze4_plain.png","1","left",5.659,7,"original","gaze4"
"3FFG54E",23,"No","left","Neither nor","Neither nor","Rarely","Female","No","gaze1_plain.png","1","left",1.04,8,"original","gaze1"
"3FFG54E",23,"No","right","Neither nor","Neither nor","Rarely","Female","No","gaze6_cue.png","1","right",0.736,9,"edited","gaze6"
"427569",28,"No","right","Strongly disagree","Disagree","Weekly","Male","No","gaze3_plain.png","0","down",5.3881,0,"original","gaze3"
"427569",28,"No","up","Strongly disagree","Disagree","Weekly","Male","No","gaze5_cue.png","1","up",4.5213,1,"edited","gaze5"
"427569",28,"No","left","Strongly disagree","Disagree","Weekly","Male","No","gaze4_cue.png","1","left",1.7647,2,"edited","gaze4"
"427569",28,"No","right","Strongly disagree","Disagree","Weekly","Male","No","gaze3_cue.png","1","right",1.0925,3,"edited","gaze3"
"427569",28,"No","left","Strongly disagree","Disagree","Weekly","Male","No","gaze1_cue.png","1","left",1.9266,4,"edited","gaze1"
"427569",28,"No","right","Strongly disagree","Disagree","Weekly","Male","No","gaze6_cue.png","1","right",0.6864,13,"edited","gaze6"
"427569",28,"No","right","Strongly disagree","Disagree","Weekly","Male","No","gaze6_plain.png","1","right",0.6056,8,"original","gaze6"
"427569",28,"No","right","Strongly disagree","Disagree","Weekly","Male","No","gaze7_cue.png","1","right",0.6576,5,"edited","gaze7"
"427569",28,"No","left","Strongly disagree","Disagree","Weekly","Male","No","gaze2_plain.png","1","left",1.9979,6,"original","gaze2"
"427569",28,"No","left","Strongly disagree","Disagree","Weekly","Male","No","gaze2_cue.png","1","left",0.6783,7,"edited","gaze2"
"427569",28,"No","left","Strongly disagree","Disagree","Weekly","Male","No","gaze4_plain.png","1","left",0.6529,12,"original","gaze4"
"427569",28,"No","left","Strongly disagree","Disagree","Weekly","Male","No","gaze1_plain.png","1","left",0.7936,9,"original","gaze1"
"427569",28,"No","up","Strongly disagree","Disagree","Weekly","Male","No","gaze5_plain.png","1","up",1.3281,11,"original","gaze5"
"427569",28,"No","right","Strongly disagree","Disagree","Weekly","Male","No","gaze7_plain.png","1","right",2.0327,10,"original","gaze7"
"579998",26,"No","left","Disagree","Agree","Every 3rd month","Male","No","gaze2_cue.png","1","left",0.9434,3,"edited","gaze2"
"579998",26,"No","right","Disagree","Agree","Every 3rd month","Male","No","gaze7_cue.png","1","right",0.6896,4,"edited","gaze7"
"579998",26,"No","right","Disagree","Agree","Every 3rd month","Male","No","gaze6_plain.png","1","right",0.8474,5,"original","gaze6"
"579998",26,"No","left","Disagree","Agree","Every 3rd month","Male","No","gaze2_plain.png","1","left",1.0769,6,"original","gaze2"
"579998",26,"No","right","Disagree","Agree","Every 3rd month","Male","No","gaze3_cue.png","0","down",1.2778,7,"edited","gaze3"
"579998",26,"No","right","Disagree","Agree","Every 3rd month","Male","No","gaze7_plain.png","1","right",1.6405,8,"original","gaze7"
"579998",26,"No","right","Disagree","Agree","Every 3rd month","Male","No","gaze6_cue.png","1","right",0.721,9,"edited","gaze6"
"579998",26,"No","left","Disagree","Agree","Every 3rd month","Male","No","gaze1_cue.png","1","left",0.9964,10,"edited","gaze1"
"579998",26,"No","left","Disagree","Agree","Every 3rd month","Male","No","gaze4_plain.png","1","left",1.3506,11,"original","gaze4"
"579998",26,"No","right","Disagree","Agree","Every 3rd month","Male","No","gaze3_plain.png","0","down",3.4758,12,"original","gaze3"
"579998",26,"No","left","Disagree","Agree","Every 3rd month","Male","No","gaze4_cue.png","1","left",0.9028,13,"edited","gaze4"
"579998",26,"No","up","Disagree","Agree","Every 3rd month","Male","No","gaze5_cue.png","1","up",1.5827,0,"edited","gaze5"
"579998",26,"No","up","Disagree","Agree","Every 3rd month","Male","No","gaze5_plain.png","1","up",1.4624,1,"original","gaze5"
"579998",26,"No","left","Disagree","Agree","Every 3rd month","Male","No","gaze1_plain.png","1","left",1.172,2,"original","gaze1"
"abcabc",25,"No","right","Disagree","Disagree","Semi-annually","Male","No","gaze6_plain.png","1","right",1.685,0,"original","gaze6"
"abcabc",25,"No","left","Disagree","Disagree","Semi-annually","Male","No","gaze4_cue.png","1","left",1.102,1,"edited","gaze4"
"abcabc",25,"No","right","Disagree","Disagree","Semi-annually","Male","No","gaze7_cue.png","1","right",9.13,2,"edited","gaze7"
"abcabc",25,"No","right","Disagree","Disagree","Semi-annually","Male","No","gaze3_plain.png","1","right",3.414,3,"original","gaze3"
"abcabc",25,"No","left","Disagree","Disagree","Semi-annually","Male","No","gaze2_cue.png","1","left",1.411,4,"edited","gaze2"
"abcabc",25,"No","left","Disagree","Disagree","Semi-annually","Male","No","gaze2_plain.png","1","left",1.795,5,"original","gaze2"
"abcabc",25,"No","right","Disagree","Disagree","Semi-annually","Male","No","gaze6_cue.png","1","right",1.001,6,"edited","gaze6"
"abcabc",25,"No","left","Disagree","Disagree","Semi-annually","Male","No","gaze1_plain.png","1","left",1.121,7,"original","gaze1"
"abcabc",25,"No","up","Disagree","Disagree","Semi-annually","Male","No","gaze5_cue.png","1","up",0.89,8,"edited","gaze5"
"abcabc",25,"No","left","Disagree","Disagree","Semi-annually","Male","No","gaze4_plain.png","1","left",1.298,9,"original","gaze4"
"abcabc",25,"No","right","Disagree","Disagree","Semi-annually","Male","No","gaze7_plain.png","1","right",1.904,10,"original","gaze7"
"abcabc",25,"No","right","Disagree","Disagree","Semi-annually","Male","No","gaze3_cue.png","1","right",1.182,11,"edited","gaze3"
"abcabc",25,"No","up","Disagree","Disagree","Semi-annually","Male","No","gaze5_plain.png","1","up",0.953,12,"original","gaze5"
"abcabc",25,"No","left","Disagree","Disagree","Semi-annually","Male","No","gaze1_cue.png","1","left",1.144,13,"edited","gaze1"
"au691988",28,"No","up","Disagree","Agree","Every 3rd month","Male","No","gaze5_cue.png","1","up",2.618,0,"edited","gaze5"
"au691988",28,"No","right","Disagree","Agree","Every 3rd month","Male","No","gaze7_plain.png","1","right",1.0756,1,"original","gaze7"
"au691988",28,"No","right","Disagree","Agree","Every 3rd month","Male","No","gaze3_plain.png","1","right",1.1592,2,"original","gaze3"
"au691988",28,"No","up","Disagree","Agree","Every 3rd month","Male","No","gaze5_plain.png","1","up",1.0728,3,"original","gaze5"
"au691988",28,"No","left","Disagree","Agree","Every 3rd month","Male","No","gaze2_plain.png","1","left",0.8996,4,"original","gaze2"
"au691988",28,"No","left","Disagree","Agree","Every 3rd month","Male","No","gaze1_cue.png","1","left",1.4859,5,"edited","gaze1"
"au691988",28,"No","right","Disagree","Agree","Every 3rd month","Male","No","gaze3_cue.png","1","right",0.9543,6,"edited","gaze3"
"au691988",28,"No","left","Disagree","Agree","Every 3rd month","Male","No","gaze1_plain.png","1","left",0.7468,7,"original","gaze1"
"au691988",28,"No","left","Disagree","Agree","Every 3rd month","Male","No","gaze2_cue.png","1","left",1.2995,8,"edited","gaze2"
"au691988",28,"No","left","Disagree","Agree","Every 3rd month","Male","No","gaze4_plain.png","1","left",1.2866,9,"original","gaze4"
"au691988",28,"No","right","Disagree","Agree","Every 3rd month","Male","No","gaze6_plain.png","1","right",2.2677,10,"original","gaze6"
"au691988",28,"No","right","Disagree","Agree","Every 3rd month","Male","No","gaze7_cue.png","1","right",1.2161,11,"edited","gaze7"
"au691988",28,"No","left","Disagree","Agree","Every 3rd month","Male","No","gaze4_cue.png","1","left",0.7015,12,"edited","gaze4"
"au691988",28,"No","right","Disagree","Agree","Every 3rd month","Male","No","gaze6_cue.png","1","right",0.8008,13,"edited","gaze6"
"Ben24jada",56,"No","left","Neither nor","Disagree","Monthly","Female","No","gaze1_plain.png","1","left",6.2862,0,"original","gaze1"
"Ben24jada",56,"No","right","Neither nor","Disagree","Monthly","Female","No","gaze6_plain.png","1","right",0.9913,1,"original","gaze6"
"Ben24jada",56,"No","left","Neither nor","Disagree","Monthly","Female","No","gaze2_plain.png","1","left",2.6858,2,"original","gaze2"
"Ben24jada",56,"No","right","Neither nor","Disagree","Monthly","Female","No","gaze3_plain.png","0","down",4.5013,3,"original","gaze3"
"Ben24jada",56,"No","left","Neither nor","Disagree","Monthly","Female","No","gaze1_cue.png","1","left",0.9787,4,"edited","gaze1"
"Ben24jada",56,"No","up","Neither nor","Disagree","Monthly","Female","No","gaze5_cue.png","1","up",12.9965,5,"edited","gaze5"
"Ben24jada",56,"No","right","Neither nor","Disagree","Monthly","Female","No","gaze6_cue.png","1","right",0.9561,6,"edited","gaze6"
"Ben24jada",56,"No","left","Neither nor","Disagree","Monthly","Female","No","gaze2_cue.png","1","left",0.7547,7,"edited","gaze2"
"Ben24jada",56,"No","right","Neither nor","Disagree","Monthly","Female","No","gaze7_cue.png","1","right",0.6751,8,"edited","gaze7"
"Ben24jada",56,"No","up","Neither nor","Disagree","Monthly","Female","No","gaze5_plain.png","1","up",3.3931,9,"original","gaze5"
"Ben24jada",56,"No","right","Neither nor","Disagree","Monthly","Female","No","gaze7_plain.png","1","right",2.5265,10,"original","gaze7"
"Ben24jada",56,"No","right","Neither nor","Disagree","Monthly","Female","No","gaze3_cue.png","1","right",13.4281,11,"edited","gaze3"
"Ben24jada",56,"No","left","Neither nor","Disagree","Monthly","Female","No","gaze4_cue.png","1","left",2.0387,13,"edited","gaze4"
"Ben24jada",56,"No","left","Neither nor","Disagree","Monthly","Female","No","gaze4_plain.png","1","left",5.756,12,"original","gaze4"
"DBF47",24,"No","right","Disagree","Disagree","Every 3rd month","Male","No","gaze3_cue.png","1","right",1.1513,0,"edited","gaze3"
"DBF47",24,"No","right","Disagree","Disagree","Every 3rd month","Male","No","gaze7_plain.png","1","right",1.4704,1,"original","gaze7"
"DBF47",24,"No","right","Disagree","Disagree","Every 3rd month","Male","No","gaze7_cue.png","1","right",2.8017,2,"edited","gaze7"
"DBF47",24,"No","left","Disagree","Disagree","Every 3rd month","Male","No","gaze4_cue.png","1","left",1.2682,3,"edited","gaze4"
"DBF47",24,"No","up","Disagree","Disagree","Every 3rd month","Male","No","gaze5_cue.png","1","up",0.8486,4,"edited","gaze5"
"DBF47",24,"No","left","Disagree","Disagree","Every 3rd month","Male","No","gaze1_cue.png","0","down",0.84,5,"edited","gaze1"
"DBF47",24,"No","left","Disagree","Disagree","Every 3rd month","Male","No","gaze1_plain.png","1","left",2.1171,6,"original","gaze1"
"DBF47",24,"No","right","Disagree","Disagree","Every 3rd month","Male","No","gaze6_cue.png","1","right",0.9252,7,"edited","gaze6"
"DBF47",24,"No","right","Disagree","Disagree","Every 3rd month","Male","No","gaze3_plain.png","1","right",1.08,8,"original","gaze3"
"DBF47",24,"No","left","Disagree","Disagree","Every 3rd month","Male","No","gaze2_cue.png","1","left",1.5689,9,"edited","gaze2"
"DBF47",24,"No","up","Disagree","Disagree","Every 3rd month","Male","No","gaze5_plain.png","1","up",0.9204,10,"original","gaze5"
"DBF47",24,"No","left","Disagree","Disagree","Every 3rd month","Male","No","gaze2_plain.png","1","left",1.4824,11,"original","gaze2"
"DBF47",24,"No","left","Disagree","Disagree","Every 3rd month","Male","No","gaze4_plain.png","1","left",0.9834,12,"original","gaze4"
"DBF47",24,"No","right","Disagree","Disagree","Every 3rd month","Male","No","gaze6_plain.png","1","right",0.6989,13,"original","gaze6"
"eae24",24,"No","left","Agree","Agree","Monthly","Female","No","gaze1_cue.png","1","left",1.1293,1,"edited","gaze1"
"eae24",24,"No","right","Agree","Agree","Monthly","Female","No","gaze6_plain.png","1","right",0.9373,2,"original","gaze6"
"eae24",24,"No","left","Agree","Agree","Monthly","Female","No","gaze2_plain.png","0","down",1.0325,3,"original","gaze2"
"eae24",24,"No","left","Agree","Agree","Monthly","Female","No","gaze1_plain.png","1","left",0.9964,4,"original","gaze1"
"eae24",24,"No","left","Agree","Agree","Monthly","Female","No","gaze4_plain.png","0","right",1.3282,5,"original","gaze4"
"eae24",24,"No","left","Agree","Agree","Monthly","Female","No","gaze2_cue.png","0","down",1.6015,6,"edited","gaze2"
"eae24",24,"No","up","Agree","Agree","Monthly","Female","No","gaze5_plain.png","0","right",1.4003,7,"original","gaze5"
"eae24",24,"No","right","Agree","Agree","Monthly","Female","No","gaze3_plain.png","0","down",2.3196,8,"original","gaze3"
"eae24",24,"No","right","Agree","Agree","Monthly","Female","No","gaze7_cue.png","1","right",0.8648,9,"edited","gaze7"
"eae24",24,"No","up","Agree","Agree","Monthly","Female","No","gaze5_cue.png","0","right",1.0895,10,"edited","gaze5"
"eae24",24,"No","right","Agree","Agree","Monthly","Female","No","gaze6_cue.png","1","right",0.9133,11,"edited","gaze6"
"eae24",24,"No","right","Agree","Agree","Monthly","Female","No","gaze3_cue.png","0","down",1.2308,12,"edited","gaze3"
"eae24",24,"No","left","Agree","Agree","Monthly","Female","No","gaze4_cue.png","0","up",1.634,13,"edited","gaze4"
"eae24",24,"No","right","Agree","Agree","Monthly","Female","No","gaze7_plain.png","1","right",3.2428,0,"original","gaze7"
"erew326adw",26,"No","up","Neither nor","Disagree","Monthly","Female","No","gaze5_cue.png","1","up",2.244,0,"edited","gaze5"
"erew326adw",26,"No","left","Neither nor","Disagree","Monthly","Female","No","gaze2_plain.png","1","left",1.409,1,"original","gaze2"
"erew326adw",26,"No","right","Neither nor","Disagree","Monthly","Female","No","gaze3_cue.png","1","right",1.759,2,"edited","gaze3"
"erew326adw",26,"No","right","Neither nor","Disagree","Monthly","Female","No","gaze6_cue.png","1","right",0.874,6,"edited","gaze6"
"erew326adw",26,"No","left","Neither nor","Disagree","Monthly","Female","No","gaze4_cue.png","1","left",2.041,7,"edited","gaze4"
"erew326adw",26,"No","left","Neither nor","Disagree","Monthly","Female","No","gaze1_cue.png","1","left",0.997,8,"edited","gaze1"
"erew326adw",26,"No","right","Neither nor","Disagree","Monthly","Female","No","gaze7_cue.png","1","right",1.604,9,"edited","gaze7"
"erew326adw",26,"No","left","Neither nor","Disagree","Monthly","Female","No","gaze2_cue.png","1","left",2.243,11,"edited","gaze2"
"erew326adw",26,"No","left","Neither nor","Disagree","Monthly","Female","No","gaze4_plain.png","1","left",1.087,12,"original","gaze4"
"erew326adw",26,"No","right","Neither nor","Disagree","Monthly","Female","No","gaze6_plain.png","1","right",0.972,13,"original","gaze6"
"erew326adw",26,"No","right","Neither nor","Disagree","Monthly","Female","No","gaze3_plain.png","1","right",1.819,3,"original","gaze3"
"erew326adw",26,"No","left","Neither nor","Disagree","Monthly","Female","No","gaze1_plain.png","1","left",1.093,4,"original","gaze1"
"erew326adw",26,"No","up","Neither nor","Disagree","Monthly","Female","No","gaze5_plain.png","1","up",1.295,5,"original","gaze5"
"erew326adw",26,"No","right","Neither nor","Disagree","Monthly","Female","No","gaze7_plain.png","1","right",1.433,10,"original","gaze7"
"gyiu98",22,"No","up","Disagree","Disagree","Monthly","Female","No","gaze5_plain.png","1","up",1.409,7,"original","gaze5"
"gyiu98",22,"No","right","Disagree","Disagree","Monthly","Female","No","gaze3_plain.png","1","right",1.9,8,"original","gaze3"
"gyiu98",22,"No","left","Disagree","Disagree","Monthly","Female","No","gaze2_cue.png","1","left",1.237,9,"edited","gaze2"
"gyiu98",22,"No","right","Disagree","Disagree","Monthly","Female","No","gaze6_cue.png","1","right",1.172,10,"edited","gaze6"
"gyiu98",22,"No","right","Disagree","Disagree","Monthly","Female","No","gaze3_cue.png","1","right",4.117,0,"edited","gaze3"
"gyiu98",22,"No","left","Disagree","Disagree","Monthly","Female","No","gaze1_plain.png","1","left",1.166,1,"original","gaze1"
"gyiu98",22,"No","left","Disagree","Disagree","Monthly","Female","No","gaze2_plain.png","1","left",3.127,2,"original","gaze2"
"gyiu98",22,"No","right","Disagree","Disagree","Monthly","Female","No","gaze6_plain.png","1","right",0.841,3,"original","gaze6"
"gyiu98",22,"No","left","Disagree","Disagree","Monthly","Female","No","gaze4_plain.png","1","left",1.619,4,"original","gaze4"
"gyiu98",22,"No","up","Disagree","Disagree","Monthly","Female","No","gaze5_cue.png","1","up",1.107,5,"edited","gaze5"
"gyiu98",22,"No","left","Disagree","Disagree","Monthly","Female","No","gaze4_cue.png","1","left",1.61,6,"edited","gaze4"
"gyiu98",22,"No","left","Disagree","Disagree","Monthly","Female","No","gaze1_cue.png","1","left",1.325,11,"edited","gaze1"
"gyiu98",22,"No","right","Disagree","Disagree","Monthly","Female","No","gaze7_cue.png","1","right",0.888,12,"edited","gaze7"
"gyiu98",22,"No","right","Disagree","Disagree","Monthly","Female","No","gaze7_plain.png","0","up",2.005,13,"original","gaze7"
"haps123",24,"No","up","Neither nor","Strongly agree","Monthly","Female","No","gaze5_cue.png","1","up",3.798,0,"edited","gaze5"
"haps123",24,"No","left","Neither nor","Strongly agree","Monthly","Female","No","gaze4_plain.png","1","left",1.851,1,"original","gaze4"
"haps123",24,"No","left","Neither nor","Strongly agree","Monthly","Female","No","gaze2_plain.png","1","left",1.279,2,"original","gaze2"
"haps123",24,"No","right","Neither nor","Strongly agree","Monthly","Female","No","gaze6_plain.png","1","right",1.038,3,"original","gaze6"
"haps123",24,"No","left","Neither nor","Strongly agree","Monthly","Female","No","gaze1_plain.png","1","left",1.199,4,"original","gaze1"
"haps123",24,"No","right","Neither nor","Strongly agree","Monthly","Female","No","gaze7_cue.png","1","right",1.112,5,"edited","gaze7"
"haps123",24,"No","right","Neither nor","Strongly agree","Monthly","Female","No","gaze3_cue.png","1","right",0.99,6,"edited","gaze3"
"haps123",24,"No","left","Neither nor","Strongly agree","Monthly","Female","No","gaze2_cue.png","1","left",1.204,7,"edited","gaze2"
"haps123",24,"No","right","Neither nor","Strongly agree","Monthly","Female","No","gaze3_plain.png","1","right",0.829,8,"original","gaze3"
"haps123",24,"No","left","Neither nor","Strongly agree","Monthly","Female","No","gaze1_cue.png","1","left",1.602,9,"edited","gaze1"
"haps123",24,"No","right","Neither nor","Strongly agree","Monthly","Female","No","gaze6_cue.png","1","right",1.757,10,"edited","gaze6"
"haps123",24,"No","right","Neither nor","Strongly agree","Monthly","Female","No","gaze7_plain.png","0","up",4.115,11,"original","gaze7"
"haps123",24,"No","up","Neither nor","Strongly agree","Monthly","Female","No","gaze5_plain.png","1","up",1.203,12,"original","gaze5"
"haps123",24,"No","left","Neither nor","Strongly agree","Monthly","Female","No","gaze4_cue.png","1","left",1.241,13,"edited","gaze4"
"hej7",25,"No","right","Strongly agree","Agree","Monthly","Female","No","gaze7_plain.png","1","right",5.263,0,"original","gaze7"
"hej7",25,"No","right","Strongly agree","Agree","Monthly","Female","No","gaze3_plain.png","1","right",2.864,1,"original","gaze3"
"hej7",25,"No","up","Strongly agree","Agree","Monthly","Female","No","gaze5_plain.png","1","up",1.836,2,"original","gaze5"
"hej7",25,"No","up","Strongly agree","Agree","Monthly","Female","No","gaze5_cue.png","1","up",3.305,3,"edited","gaze5"
"hej7",25,"No","right","Strongly agree","Agree","Monthly","Female","No","gaze6_plain.png","1","right",1.14,4,"original","gaze6"
"hej7",25,"No","right","Strongly agree","Agree","Monthly","Female","No","gaze7_cue.png","1","right",2.336,5,"edited","gaze7"
"hej7",25,"No","left","Strongly agree","Agree","Monthly","Female","No","gaze2_plain.png","1","left",2.982,6,"original","gaze2"
"hej7",25,"No","left","Strongly agree","Agree","Monthly","Female","No","gaze4_plain.png","1","left",1.995,7,"original","gaze4"
"hej7",25,"No","right","Strongly agree","Agree","Monthly","Female","No","gaze6_cue.png","1","right",1.008,8,"edited","gaze6"
"hej7",25,"No","left","Strongly agree","Agree","Monthly","Female","No","gaze2_cue.png","1","left",1.155,9,"edited","gaze2"
"hej7",25,"No","left","Strongly agree","Agree","Monthly","Female","No","gaze1_cue.png","1","left",0.936,10,"edited","gaze1"
"hej7",25,"No","right","Strongly agree","Agree","Monthly","Female","No","gaze3_cue.png","1","right",1.08,11,"edited","gaze3"
"hej7",25,"No","left","Strongly agree","Agree","Monthly","Female","No","gaze1_plain.png","1","left",0.802,12,"original","gaze1"
"hej7",25,"No","left","Strongly agree","Agree","Monthly","Female","No","gaze4_cue.png","1","left",1.292,13,"edited","gaze4"
"Jegor62",61,"No","right","Neither nor","Neither nor","Monthly","Male","No","gaze6_plain.png","1","right",1.142,2,"original","gaze6"
"Jegor62",61,"No","left","Neither nor","Neither nor","Monthly","Male","No","gaze4_cue.png","1","left",7.9811,3,"edited","gaze4"
"Jegor62",61,"No","right","Neither nor","Neither nor","Monthly","Male","No","gaze3_cue.png","1","right",14.6638,4,"edited","gaze3"
"Jegor62",61,"No","left","Neither nor","Neither nor","Monthly","Male","No","gaze1_plain.png","1","left",2.419,5,"original","gaze1"
"Jegor62",61,"No","left","Neither nor","Neither nor","Monthly","Male","No","gaze1_cue.png","1","left",7.1244,0,"edited","gaze1"
"Jegor62",61,"No","up","Neither nor","Neither nor","Monthly","Male","No","gaze5_cue.png","1","up",7.3338,1,"edited","gaze5"
"Jegor62",61,"No","left","Neither nor","Neither nor","Monthly","Male","No","gaze4_plain.png","1","left",1.6584,8,"original","gaze4"
"Jegor62",61,"No","up","Neither nor","Neither nor","Monthly","Male","No","gaze5_plain.png","1","up",2.9755,9,"original","gaze5"
"Jegor62",61,"No","left","Neither nor","Neither nor","Monthly","Male","No","gaze2_plain.png","0","down",12.7625,6,"original","gaze2"
"Jegor62",61,"No","left","Neither nor","Neither nor","Monthly","Male","No","gaze2_cue.png","1","left",1.5842,7,"edited","gaze2"
"Jegor62",61,"No","right","Neither nor","Neither nor","Monthly","Male","No","gaze7_cue.png","1","right",3.1108,12,"edited","gaze7"
"Jegor62",61,"No","right","Neither nor","Neither nor","Monthly","Male","No","gaze3_plain.png","1","right",9.5441,13,"original","gaze3"
"Jegor62",61,"No","right","Neither nor","Neither nor","Monthly","Male","No","gaze6_cue.png","1","right",1.8586,11,"edited","gaze6"
"Jegor62",61,"No","right","Neither nor","Neither nor","Monthly","Male","No","gaze7_plain.png","1","right",2.7717,10,"original","gaze7"
"jyd78nhg79",18,"No","left","Agree","Disagree","Semi-annually","Female","No","gaze1_plain.png","1","left",1.1584,0,"original","gaze1"
"jyd78nhg79",18,"No","right","Agree","Disagree","Semi-annually","Female","No","gaze3_plain.png","1","right",1.6113,1,"original","gaze3"
"jyd78nhg79",18,"No","left","Agree","Disagree","Semi-annually","Female","No","gaze4_cue.png","1","left",1.1651,2,"edited","gaze4"
"jyd78nhg79",18,"No","right","Agree","Disagree","Semi-annually","Female","No","gaze6_cue.png","1","right",0.8254,3,"edited","gaze6"
"jyd78nhg79",18,"No","left","Agree","Disagree","Semi-annually","Female","No","gaze4_plain.png","1","left",1.2246,4,"original","gaze4"
"jyd78nhg79",18,"No","up","Agree","Disagree","Semi-annually","Female","No","gaze5_plain.png","1","up",1.3582,5,"original","gaze5"
"jyd78nhg79",18,"No","right","Agree","Disagree","Semi-annually","Female","No","gaze3_cue.png","0","up",0.983,6,"edited","gaze3"
"jyd78nhg79",18,"No","right","Agree","Disagree","Semi-annually","Female","No","gaze7_cue.png","0","up",2.3093,7,"edited","gaze7"
"jyd78nhg79",18,"No","left","Agree","Disagree","Semi-annually","Female","No","gaze1_cue.png","1","left",1.0242,8,"edited","gaze1"
"jyd78nhg79",18,"No","up","Agree","Disagree","Semi-annually","Female","No","gaze5_cue.png","1","up",1.2606,9,"edited","gaze5"
"jyd78nhg79",18,"No","left","Agree","Disagree","Semi-annually","Female","No","gaze2_cue.png","0","right",2.7423,10,"edited","gaze2"
"jyd78nhg79",18,"No","left","Agree","Disagree","Semi-annually","Female","No","gaze2_plain.png","0","right",0.9138,11,"original","gaze2"
"jyd78nhg79",18,"No","right","Agree","Disagree","Semi-annually","Female","No","gaze6_plain.png","1","right",0.9916,12,"original","gaze6"
"jyd78nhg79",18,"No","right","Agree","Disagree","Semi-annually","Female","No","gaze7_plain.png","0","up",1.0123,13,"original","gaze7"
"K5gu78",23,"No","left","Neither nor","Neither nor","Semi-annually","Female","No","gaze2_plain.png","1","left",1.2778,12,"original","gaze2"
"K5gu78",23,"No","right","Neither nor","Neither nor","Semi-annually","Female","No","gaze6_plain.png","1","right",0.8753,13,"original","gaze6"
"K5gu78",23,"No","left","Neither nor","Neither nor","Semi-annually","Female","No","gaze4_cue.png","1","left",1.6195,0,"edited","gaze4"
"K5gu78",23,"No","left","Neither nor","Neither nor","Semi-annually","Female","No","gaze4_plain.png","1","left",3.2096,1,"original","gaze4"
"K5gu78",23,"No","left","Neither nor","Neither nor","Semi-annually","Female","No","gaze1_cue.png","1","left",1.3597,2,"edited","gaze1"
"K5gu78",23,"No","right","Neither nor","Neither nor","Semi-annually","Female","No","gaze3_cue.png","1","right",1.7589,3,"edited","gaze3"
"K5gu78",23,"No","right","Neither nor","Neither nor","Semi-annually","Female","No","gaze7_cue.png","0","up",1.6591,4,"edited","gaze7"
"K5gu78",23,"No","right","Neither nor","Neither nor","Semi-annually","Female","No","gaze6_cue.png","1","right",1.0938,5,"edited","gaze6"
"K5gu78",23,"No","right","Neither nor","Neither nor","Semi-annually","Female","No","gaze3_plain.png","1","right",1.0326,6,"original","gaze3"
"K5gu78",23,"No","up","Neither nor","Neither nor","Semi-annually","Female","No","gaze5_plain.png","1","up",1.0943,7,"original","gaze5"
"K5gu78",23,"No","left","Neither nor","Neither nor","Semi-annually","Female","No","gaze2_cue.png","1","left",1.4334,9,"edited","gaze2"
"K5gu78",23,"No","up","Neither nor","Neither nor","Semi-annually","Female","No","gaze5_cue.png","1","up",0.8264,10,"edited","gaze5"
"K5gu78",23,"No","right","Neither nor","Neither nor","Semi-annually","Female","No","gaze7_plain.png","0","up",1.7914,8,"original","gaze7"
"K5gu78",23,"No","left","Neither nor","Neither nor","Semi-annually","Female","No","gaze1_plain.png","1","left",0.9081,11,"original","gaze1"
"KJ19",23,"No","left","Strongly agree","Strongly agree","Rarely","Female","No","gaze2_cue.png","0","right",5.846,0,"edited","gaze2"
"KJ19",23,"No","left","Strongly agree","Strongly agree","Rarely","Female","No","gaze1_plain.png","1","left",0.967,1,"original","gaze1"
"KJ19",23,"No","right","Strongly agree","Strongly agree","Rarely","Female","No","gaze7_plain.png","1","right",1.789,2,"original","gaze7"
"KJ19",23,"No","right","Strongly agree","Strongly agree","Rarely","Female","No","gaze6_plain.png","1","right",0.774,3,"original","gaze6"
"KJ19",23,"No","left","Strongly agree","Strongly agree","Rarely","Female","No","gaze1_cue.png","1","left",0.76,4,"edited","gaze1"
"KJ19",23,"No","left","Strongly agree","Strongly agree","Rarely","Female","No","gaze4_plain.png","1","left",0.893,5,"original","gaze4"
"KJ19",23,"No","up","Strongly agree","Strongly agree","Rarely","Female","No","gaze5_cue.png","1","up",0.815,6,"edited","gaze5"
"KJ19",23,"No","right","Strongly agree","Strongly agree","Rarely","Female","No","gaze3_plain.png","0","down",1.232,7,"original","gaze3"
"KJ19",23,"No","right","Strongly agree","Strongly agree","Rarely","Female","No","gaze3_cue.png","1","right",1.079,8,"edited","gaze3"
"KJ19",23,"No","left","Strongly agree","Strongly agree","Rarely","Female","No","gaze2_plain.png","0","right",1.418,9,"original","gaze2"
"KJ19",23,"No","right","Strongly agree","Strongly agree","Rarely","Female","No","gaze6_cue.png","1","right",0.612,10,"edited","gaze6"
"KJ19",23,"No","up","Strongly agree","Strongly agree","Rarely","Female","No","gaze5_plain.png","0","left",0.787,11,"original","gaze5"
"KJ19",23,"No","right","Strongly agree","Strongly agree","Rarely","Female","No","gaze7_cue.png","1","right",0.6,12,"edited","gaze7"
"KJ19",23,"No","left","Strongly agree","Strongly agree","Rarely","Female","No","gaze4_cue.png","1","left",0.618,13,"edited","gaze4"
"KleinOgAbel",24,"No","up","Disagree","Strongly disagree","Weekly","Male","Yes","gaze5_cue.png","1","up",2.1093,0,"edited","gaze5"
"KleinOgAbel",24,"No","left","Disagree","Strongly disagree","Weekly","Male","Yes","gaze1_plain.png","1","left",3.9804,1,"original","gaze1"
"KleinOgAbel",24,"No","up","Disagree","Strongly disagree","Weekly","Male","Yes","gaze5_plain.png","1","up",1.0639,2,"original","gaze5"
"KleinOgAbel",24,"No","right","Disagree","Strongly disagree","Weekly","Male","Yes","gaze7_plain.png","1","right",2.3862,3,"original","gaze7"
"KleinOgAbel",24,"No","right","Disagree","Strongly disagree","Weekly","Male","Yes","gaze6_cue.png","1","right",1.0033,4,"edited","gaze6"
"KleinOgAbel",24,"No","left","Disagree","Strongly disagree","Weekly","Male","Yes","gaze2_plain.png","1","left",1.6514,5,"original","gaze2"
"KleinOgAbel",24,"No","right","Disagree","Strongly disagree","Weekly","Male","Yes","gaze3_cue.png","0","up",1.0863,6,"edited","gaze3"
"KleinOgAbel",24,"No","left","Disagree","Strongly disagree","Weekly","Male","Yes","gaze1_cue.png","1","left",1.1594,7,"edited","gaze1"
"KleinOgAbel",24,"No","left","Disagree","Strongly disagree","Weekly","Male","Yes","gaze4_cue.png","1","left",1.7646,8,"edited","gaze4"
"KleinOgAbel",24,"No","left","Disagree","Strongly disagree","Weekly","Male","Yes","gaze2_cue.png","1","left",3.2529,9,"edited","gaze2"
"KleinOgAbel",24,"No","right","Disagree","Strongly disagree","Weekly","Male","Yes","gaze7_cue.png","1","right",0.6868,10,"edited","gaze7"
"KleinOgAbel",24,"No","right","Disagree","Strongly disagree","Weekly","Male","Yes","gaze3_plain.png","1","right",2.1176,11,"original","gaze3"
"KleinOgAbel",24,"No","left","Disagree","Strongly disagree","Weekly","Male","Yes","gaze4_plain.png","1","left",1.9338,12,"original","gaze4"
"KleinOgAbel",24,"No","right","Disagree","Strongly disagree","Weekly","Male","Yes","gaze6_plain.png","1","right",0.7557,13,"original","gaze6"
"Lou97",26,"No","up","Neither nor","Disagree","Semi-annually","Female","No","gaze5_cue.png","1","up",0.8807,6,"edited","gaze5"
"Lou97",26,"No","right","Neither nor","Disagree","Semi-annually","Female","No","gaze7_cue.png","1","right",0.7351,7,"edited","gaze7"
"Lou97",26,"No","right","Neither nor","Disagree","Semi-annually","Female","No","gaze6_plain.png","1","right",0.9739,8,"original","gaze6"
"Lou97",26,"No","right","Neither nor","Disagree","Semi-annually","Female","No","gaze3_plain.png","1","right",1.8517,9,"original","gaze3"
"Lou97",26,"No","right","Neither nor","Disagree","Semi-annually","Female","No","gaze6_cue.png","1","right",0.7952,10,"edited","gaze6"
"Lou97",26,"No","left","Neither nor","Disagree","Semi-annually","Female","No","gaze2_plain.png","1","left",1.1025,11,"original","gaze2"
"Lou97",26,"No","right","Neither nor","Disagree","Semi-annually","Female","No","gaze3_cue.png","1","right",1.1202,12,"edited","gaze3"
"Lou97",26,"No","left","Neither nor","Disagree","Semi-annually","Female","No","gaze2_cue.png","1","left",0.7198,13,"edited","gaze2"
"Lou97",26,"No","right","Neither nor","Disagree","Semi-annually","Female","No","gaze7_plain.png","1","right",2.1081,1,"original","gaze7"
"Lou97",26,"No","left","Neither nor","Disagree","Semi-annually","Female","No","gaze4_cue.png","1","left",1.1293,2,"edited","gaze4"
"Lou97",26,"No","left","Neither nor","Disagree","Semi-annually","Female","No","gaze1_plain.png","1","left",0.9724,3,"original","gaze1"
"Lou97",26,"No","left","Neither nor","Disagree","Semi-annually","Female","No","gaze1_cue.png","1","left",2.3966,0,"edited","gaze1"
"Lou97",26,"No","up","Neither nor","Disagree","Semi-annually","Female","No","gaze5_plain.png","1","up",1.2899,5,"original","gaze5"
"Lou97",26,"No","left","Neither nor","Disagree","Semi-annually","Female","No","gaze4_plain.png","1","left",0.9148,4,"original","gaze4"
"Lynge31",25,"No","up","Neither nor","Disagree","Every 3rd month","Male","No","gaze5_cue.png","1","up",1.704,6,"edited","gaze5"
"Lynge31",25,"No","left","Neither nor","Disagree","Every 3rd month","Male","No","gaze4_plain.png","1","left",2.202,7,"original","gaze4"
"Lynge31",25,"No","left","Neither nor","Disagree","Every 3rd month","Male","No","gaze2_plain.png","1","left",2.072,8,"original","gaze2"
"Lynge31",25,"No","up","Neither nor","Disagree","Every 3rd month","Male","No","gaze5_plain.png","1","up",2.874,9,"original","gaze5"
"Lynge31",25,"No","right","Neither nor","Disagree","Every 3rd month","Male","No","gaze6_plain.png","1","right",0.901,10,"original","gaze6"
"Lynge31",25,"No","left","Neither nor","Disagree","Every 3rd month","Male","No","gaze4_cue.png","1","left",1.261,11,"edited","gaze4"
"Lynge31",25,"No","right","Neither nor","Disagree","Every 3rd month","Male","No","gaze3_cue.png","1","right",0.993,12,"edited","gaze3"
"Lynge31",25,"No","right","Neither nor","Disagree","Every 3rd month","Male","No","gaze3_plain.png","1","right",1.274,13,"original","gaze3"
"Lynge31",25,"No","right","Neither nor","Disagree","Every 3rd month","Male","No","gaze7_cue.png","0","up",1.561,1,"edited","gaze7"
"Lynge31",25,"No","left","Neither nor","Disagree","Every 3rd month","Male","No","gaze2_cue.png","1","left",2.374,2,"edited","gaze2"
"Lynge31",25,"No","right","Neither nor","Disagree","Every 3rd month","Male","No","gaze7_plain.png","0","up",1.422,3,"original","gaze7"
"Lynge31",25,"No","left","Neither nor","Disagree","Every 3rd month","Male","No","gaze1_plain.png","1","left",0.83,4,"original","gaze1"
"Lynge31",25,"No","right","Neither nor","Disagree","Every 3rd month","Male","No","gaze6_cue.png","1","right",0.834,5,"edited","gaze6"
"Lynge31",25,"No","left","Neither nor","Disagree","Every 3rd month","Male","No","gaze1_cue.png","1","left",4.213,0,"edited","gaze1"
"M123",26,"No","right","Disagree","Disagree","Every 3rd month","Female","No","gaze3_plain.png","1","right",5.233,0,"original","gaze3"
"M123",26,"No","left","Disagree","Disagree","Every 3rd month","Female","No","gaze2_cue.png","1","left",2.402,1,"edited","gaze2"
"M123",26,"No","right","Disagree","Disagree","Every 3rd month","Female","No","gaze7_plain.png","1","right",2.349,2,"original","gaze7"
"M123",26,"No","right","Disagree","Disagree","Every 3rd month","Female","No","gaze6_plain.png","1","right",0.785,3,"original","gaze6"
"M123",26,"No","right","Disagree","Disagree","Every 3rd month","Female","No","gaze3_cue.png","0","down",0.942,4,"edited","gaze3"
"M123",26,"No","right","Disagree","Disagree","Every 3rd month","Female","No","gaze6_cue.png","1","right",0.849,5,"edited","gaze6"
"M123",26,"No","left","Disagree","Disagree","Every 3rd month","Female","No","gaze4_cue.png","1","left",1.65,6,"edited","gaze4"
"M123",26,"No","left","Disagree","Disagree","Every 3rd month","Female","No","gaze2_plain.png","1","left",1.333,7,"original","gaze2"
"M123",26,"No","right","Disagree","Disagree","Every 3rd month","Female","No","gaze7_cue.png","1","right",0.799,8,"edited","gaze7"
"M123",26,"No","up","Disagree","Disagree","Every 3rd month","Female","No","gaze5_plain.png","1","up",1.224,9,"original","gaze5"
"M123",26,"No","left","Disagree","Disagree","Every 3rd month","Female","No","gaze1_plain.png","0","down",2.184,10,"original","gaze1"
"M123",26,"No","left","Disagree","Disagree","Every 3rd month","Female","No","gaze1_cue.png","0","down",1.746,11,"edited","gaze1"
"M123",26,"No","up","Disagree","Disagree","Every 3rd month","Female","No","gaze5_cue.png","1","up",1.122,12,"edited","gaze5"
"M123",26,"No","left","Disagree","Disagree","Every 3rd month","Female","No","gaze4_plain.png","1","left",2.148,13,"original","gaze4"
"OMY618",31,"No","up","Agree","Neither nor","Rarely","Male","No","gaze5_plain.png","1","up",1.495,3,"original","gaze5"
"OMY618",31,"No","left","Agree","Neither nor","Rarely","Male","No","gaze4_cue.png","1","left",0.789,4,"edited","gaze4"
"OMY618",31,"No","right","Agree","Neither nor","Rarely","Male","No","gaze6_cue.png","1","right",0.997,5,"edited","gaze6"
"OMY618",31,"No","right","Agree","Neither nor","Rarely","Male","No","gaze7_cue.png","0","up",1.609,6,"edited","gaze7"
"OMY618",31,"No","left","Agree","Neither nor","Rarely","Male","No","gaze1_plain.png","1","left",0.871,7,"original","gaze1"
"OMY618",31,"No","right","Agree","Neither nor","Rarely","Male","No","gaze3_cue.png","1","right",1.343,8,"edited","gaze3"
"OMY618",31,"No","left","Agree","Neither nor","Rarely","Male","No","gaze4_plain.png","1","left",0.892,9,"original","gaze4"
"OMY618",31,"No","left","Agree","Neither nor","Rarely","Male","No","gaze1_cue.png","1","left",0.897,10,"edited","gaze1"
"OMY618",31,"No","up","Agree","Neither nor","Rarely","Male","No","gaze5_cue.png","1","up",1.012,11,"edited","gaze5"
"OMY618",31,"No","right","Agree","Neither nor","Rarely","Male","No","gaze6_plain.png","1","right",0.753,12,"original","gaze6"
"OMY618",31,"No","left","Agree","Neither nor","Rarely","Male","No","gaze2_plain.png","1","left",1.068,13,"original","gaze2"
"OMY618",31,"No","right","Agree","Neither nor","Rarely","Male","No","gaze3_plain.png","1","right",3.063,0,"original","gaze3"
"OMY618",31,"No","right","Agree","Neither nor","Rarely","Male","No","gaze7_plain.png","0","up",1.788,1,"original","gaze7"
"OMY618",31,"No","left","Agree","Neither nor","Rarely","Male","No","gaze2_cue.png","1","left",0.994,2,"edited","gaze2"
"tohitu1",24,"No","right","Strongly agree","Neither nor","Weekly","Female","Yes","gaze3_plain.png","1","right",1.2124,0,"original","gaze3"
"tohitu1",24,"No","left","Strongly agree","Neither nor","Weekly","Female","Yes","gaze4_plain.png","1","left",0.7865,1,"original","gaze4"
"tohitu1",24,"No","left","Strongly agree","Neither nor","Weekly","Female","Yes","gaze4_cue.png","1","left",0.7688,2,"edited","gaze4"
"tohitu1",24,"No","up","Strongly agree","Neither nor","Weekly","Female","Yes","gaze5_plain.png","1","up",1.1148,3,"original","gaze5"
"tohitu1",24,"No","left","Strongly agree","Neither nor","Weekly","Female","Yes","gaze2_cue.png","1","left",0.7328,4,"edited","gaze2"
"tohitu1",24,"No","left","Strongly agree","Neither nor","Weekly","Female","Yes","gaze1_cue.png","1","left",0.5239,5,"edited","gaze1"
"tohitu1",24,"No","right","Strongly agree","Neither nor","Weekly","Female","Yes","gaze7_plain.png","1","right",0.7375,6,"original","gaze7"
"tohitu1",24,"No","up","Strongly agree","Neither nor","Weekly","Female","Yes","gaze5_cue.png","1","up",1.0698,7,"edited","gaze5"
"tohitu1",24,"No","right","Strongly agree","Neither nor","Weekly","Female","Yes","gaze7_cue.png","1","right",0.5163,8,"edited","gaze7"
"tohitu1",24,"No","right","Strongly agree","Neither nor","Weekly","Female","Yes","gaze6_cue.png","1","right",0.4353,9,"edited","gaze6"
"tohitu1",24,"No","left","Strongly agree","Neither nor","Weekly","Female","Yes","gaze2_plain.png","1","left",0.5967,10,"original","gaze2"
"tohitu1",24,"No","right","Strongly agree","Neither nor","Weekly","Female","Yes","gaze3_cue.png","1","right",0.6429,11,"edited","gaze3"
"tohitu1",24,"No","right","Strongly agree","Neither nor","Weekly","Female","Yes","gaze6_plain.png","1","right",0.7412,12,"original","gaze6"
"tohitu1",24,"No","left","Strongly agree","Neither nor","Weekly","Female","Yes","gaze1_plain.png","1","left",0.5811,13,"original","gaze1"
"yay",23,"No","left","Neither nor","Disagree","Every 3rd month","Male","No","gaze1_plain.png","1","left",4.1524,0,"original","gaze1"
"yay",23,"No","left","Neither nor","Disagree","Every 3rd month","Male","No","gaze4_plain.png","1","left",5.8587,1,"original","gaze4"
"yay",23,"No","left","Neither nor","Disagree","Every 3rd month","Male","No","gaze4_cue.png","1","left",6.002,2,"edited","gaze4"
"yay",23,"No","up","Neither nor","Disagree","Every 3rd month","Male","No","gaze5_cue.png","1","up",1.5349,3,"edited","gaze5"
"yay",23,"No","right","Neither nor","Disagree","Every 3rd month","Male","No","gaze3_cue.png","1","right",1.1814,4,"edited","gaze3"
"yay",23,"No","right","Neither nor","Disagree","Every 3rd month","Male","No","gaze3_plain.png","1","right",1.5699,5,"original","gaze3"
"yay",23,"No","left","Neither nor","Disagree","Every 3rd month","Male","No","gaze2_plain.png","1","left",2.4497,6,"original","gaze2"
"yay",23,"No","right","Neither nor","Disagree","Every 3rd month","Male","No","gaze6_cue.png","1","right",1.3833,7,"edited","gaze6"
"yay",23,"No","right","Neither nor","Disagree","Every 3rd month","Male","No","gaze7_plain.png","1","right",2.8649,8,"original","gaze7"
"yay",23,"No","right","Neither nor","Disagree","Every 3rd month","Male","No","gaze6_plain.png","1","right",0.7738,9,"original","gaze6"
"yay",23,"No","left","Neither nor","Disagree","Every 3rd month","Male","No","gaze2_cue.png","1","left",0.8217,10,"edited","gaze2"
"yay",23,"No","left","Neither nor","Disagree","Every 3rd month","Male","No","gaze1_cue.png","1","left",0.8329,11,"edited","gaze1"
"yay",23,"No","up","Neither nor","Disagree","Every 3rd month","Male","No","gaze5_plain.png","1","up",2.0538,12,"original","gaze5"
"yay",23,"No","right","Neither nor","Disagree","Every 3rd month","Male","No","gaze7_cue.png","1","right",0.7175,13,"edited","gaze7"
