"id","age","colorblind","correctSeednumber","diff_remember","diff_understand","freq_game","gender","played_photo","seed_options","seed_response.corr","seed_response.keys","RT","trials_seeds.thisN","board_color","manipulation"
"11123",24,"No","0","Agree","Neither nor","Monthly","Male","No","orange_0_grey.png","1","0",7.831,0,"orange","edited"
"11123",24,"No","3","Agree","Neither nor","Monthly","Male","No","gul_3_grey.png","1","3",1.8372,1,"yellow","edited"
"11123",24,"No","1","Agree","Neither nor","Monthly","Male","No","orange_1_original.png","1","1",1.5232,2,"orange","original"
"11123",24,"No","0","Agree","Neither nor","Monthly","Male","No","gul_0_original.png","1","0",3.3008,3,"yellow","original"
"11123",24,"No","0","Agree","Neither nor","Monthly","Male","No","orange_0_original.png","1","0",2.2464,4,"orange","original"
"11123",24,"No","2","Agree","Neither nor","Monthly","Male","No","gul_2_original.png","1","2",1.9301,5,"yellow","original"
"11123",24,"No","3","Agree","Neither nor","Monthly","Male","No","orange_3_grey.png","1","3",2.1706,6,"orange","edited"
"11123",24,"No","1","Agree","Neither nor","Monthly","Male","No","orange_1_grey.png","1","1",0.9518,7,"orange","edited"
"11123",24,"No","3","Agree","Neither nor","Monthly","Male","No","orange_3_original.png","1","3",2.1221,8,"orange","original"
"11123",24,"No","2","Agree","Neither nor","Monthly","Male","No","orange_2_grey.png","1","2",0.9096,9,"orange","edited"
"11123",24,"No","2","Agree","Neither nor","Monthly","Male","No","gul_2_grey.png","1","2",1.2691,10,"yellow","edited"
"11123",24,"No","2","Agree","Neither nor","Monthly","Male","No","orange_2_original.png","1","2",1.9923,11,"orange","original"
"11123",24,"No","3","Agree","Neither nor","Monthly","Male","No","gul_3_original.png","1","3",2.4013,12,"yellow","original"
"11123",24,"No","1","Agree","Neither nor","Monthly","Male","No","gul_1_grey.png","1","1",1.4909,13,"yellow","edited"
"11123",24,"No","1","Agree","Neither nor","Monthly","Male","No","gul_1_original.png","1","1",1.1924,14,"yellow","original"
"11123",24,"No","0","Agree","Neither nor","Monthly","Male","No","gul_0_grey.png","1","0",1.0751,15,"yellow","edited"
"251100",23,"No","3","Strongly disagree","Strongly disagree","Every 3rd month","Female","No","gul_3_original.png","1","3",3.2489,0,"yellow","original"
"251100",23,"No","2","Strongly disagree","Strongly disagree","Every 3rd month","Female","No","orange_2_original.png","1","2",2.4244,1,"orange","original"
"251100",23,"No","1","Strongly disagree","Strongly disagree","Every 3rd month","Female","No","gul_1_original.png","1","1",1.8263,2,"yellow","original"
"251100",23,"No","0","Strongly disagree","Strongly disagree","Every 3rd month","Female","No","gul_0_original.png","1","0",3.3245,3,"yellow","original"
"251100",23,"No","3","Strongly disagree","Strongly disagree","Every 3rd month","Female","No","orange_3_grey.png","1","3",1.7991,4,"orange","edited"
"251100",23,"No","3","Strongly disagree","Strongly disagree","Every 3rd month","Female","No","gul_3_grey.png","1","3",1.4299,5,"yellow","edited"
"251100",23,"No","1","Strongly disagree","Strongly disagree","Every 3rd month","Female","No","orange_1_original.png","1","1",4.2508,6,"orange","original"
"251100",23,"No","3","Strongly disagree","Strongly disagree","Every 3rd month","Female","No","orange_3_original.png","1","3",2.1708,7,"orange","original"
"251100",23,"No","0","Strongly disagree","Strongly disagree","Every 3rd month","Female","No","orange_0_original.png","1","0",2.2996,8,"orange","original"
"251100",23,"No","2","Strongly disagree","Strongly disagree","Every 3rd month","Female","No","gul_2_original.png","1","2",2.1883,9,"yellow","original"
"251100",23,"No","2","Strongly disagree","Strongly disagree","Every 3rd month","Female","No","gul_2_grey.png","1","2",1.2409,10,"yellow","edited"
"251100",23,"No","1","Strongly disagree","Strongly disagree","Every 3rd month","Female","No","gul_1_grey.png","1","1",1.0015,11,"yellow","edited"
"251100",23,"No","1","Strongly disagree","Strongly disagree","Every 3rd month","Female","No","orange_1_grey.png","1","1",0.9733,12,"orange","edited"
"251100",23,"No","0","Strongly disagree","Strongly disagree","Every 3rd month","Female","No","gul_0_grey.png","1","0",2.9544,13,"yellow","edited"
"251100",23,"No","2","Strongly disagree","Strongly disagree","Every 3rd month","Female","No","orange_2_grey.png","1","2",1.1331,14,"orange","edited"
"251100",23,"No","0","Strongly disagree","Strongly disagree","Every 3rd month","Female","No","orange_0_grey.png","1","0",3.0573,15,"orange","edited"
"3FFG54E",23,"No","2","Neither nor","Neither nor","Rarely","Female","No","orange_2_original.png","1","2",11.754,0,"orange","original"
"3FFG54E",23,"No","3","Neither nor","Neither nor","Rarely","Female","No","orange_3_original.png","1","3",1.957,1,"orange","original"
"3FFG54E",23,"No","0","Neither nor","Neither nor","Rarely","Female","No","gul_0_grey.png","1","0",7.448,2,"yellow","edited"
"3FFG54E",23,"No","3","Neither nor","Neither nor","Rarely","Female","No","orange_3_grey.png","1","3",2.298,3,"orange","edited"
"3FFG54E",23,"No","3","Neither nor","Neither nor","Rarely","Female","No","gul_3_grey.png","1","3",1.323,4,"yellow","edited"
"3FFG54E",23,"No","2","Neither nor","Neither nor","Rarely","Female","No","gul_2_original.png","1","2",3.109,5,"yellow","original"
"3FFG54E",23,"No","1","Neither nor","Neither nor","Rarely","Female","No","gul_1_grey.png","1","1",1.838,6,"yellow","edited"
"3FFG54E",23,"No","2","Neither nor","Neither nor","Rarely","Female","No","orange_2_grey.png","1","2",2.191,7,"orange","edited"
"3FFG54E",23,"No","0","Neither nor","Neither nor","Rarely","Female","No","gul_0_original.png","1","0",2.858,8,"yellow","original"
"3FFG54E",23,"No","2","Neither nor","Neither nor","Rarely","Female","No","gul_2_grey.png","1","2",0.92,9,"yellow","edited"
"3FFG54E",23,"No","3","Neither nor","Neither nor","Rarely","Female","No","gul_3_original.png","1","3",3.326,10,"yellow","original"
"3FFG54E",23,"No","1","Neither nor","Neither nor","Rarely","Female","No","gul_1_original.png","1","1",2.079,11,"yellow","original"
"3FFG54E",23,"No","1","Neither nor","Neither nor","Rarely","Female","No","orange_1_original.png","1","1",2.24,12,"orange","original"
"3FFG54E",23,"No","0","Neither nor","Neither nor","Rarely","Female","No","orange_0_original.png","1","0",2.548,13,"orange","original"
"3FFG54E",23,"No","1","Neither nor","Neither nor","Rarely","Female","No","orange_1_grey.png","1","1",0.973,14,"orange","edited"
"3FFG54E",23,"No","0","Neither nor","Neither nor","Rarely","Female","No","orange_0_grey.png","1","0",2.673,15,"orange","edited"
"427569",28,"No","1","Strongly disagree","Disagree","Weekly","Male","No","gul_1_grey.png","0","4",4.8056,0,"yellow","edited"
"427569",28,"No","2","Strongly disagree","Disagree","Weekly","Male","No","orange_2_grey.png","1","2",4.1113,1,"orange","edited"
"427569",28,"No","2","Strongly disagree","Disagree","Weekly","Male","No","orange_2_original.png","1","2",3.361,2,"orange","original"
"427569",28,"No","1","Strongly disagree","Disagree","Weekly","Male","No","gul_1_original.png","1","1",1.295,3,"yellow","original"
"427569",28,"No","3","Strongly disagree","Disagree","Weekly","Male","No","gul_3_original.png","1","3",0.9081,4,"yellow","original"
"427569",28,"No","2","Strongly disagree","Disagree","Weekly","Male","No","gul_2_original.png","1","2",0.9864,5,"yellow","original"
"427569",28,"No","0","Strongly disagree","Disagree","Weekly","Male","No","orange_0_grey.png","1","0",4.6954,6,"orange","edited"
"427569",28,"No","1","Strongly disagree","Disagree","Weekly","Male","No","orange_1_grey.png","1","1",0.6099,7,"orange","edited"
"427569",28,"No","0","Strongly disagree","Disagree","Weekly","Male","No","gul_0_grey.png","1","0",1.7938,8,"yellow","edited"
"427569",28,"No","3","Strongly disagree","Disagree","Weekly","Male","No","orange_3_grey.png","1","3",0.7987,9,"orange","edited"
"427569",28,"No","1","Strongly disagree","Disagree","Weekly","Male","No","orange_1_original.png","1","1",1.1313,10,"orange","original"
"427569",28,"No","3","Strongly disagree","Disagree","Weekly","Male","No","orange_3_original.png","1","3",0.8839,11,"orange","original"
"427569",28,"No","2","Strongly disagree","Disagree","Weekly","Male","No","gul_2_grey.png","1","2",0.7745,12,"yellow","edited"
"427569",28,"No","0","Strongly disagree","Disagree","Weekly","Male","No","gul_0_original.png","1","0",2.8054,13,"yellow","original"
"427569",28,"No","3","Strongly disagree","Disagree","Weekly","Male","No","gul_3_grey.png","1","3",1.0306,14,"yellow","edited"
"427569",28,"No","0","Strongly disagree","Disagree","Weekly","Male","No","orange_0_original.png","1","0",1.9691,15,"orange","original"
"42uniqueohyesiamunique42",27,"No","0","Neither nor","Disagree","Monthly","Female","No","gul_0_original.png","1","0",16.0815,0,"yellow","original"
"42uniqueohyesiamunique42",27,"No","2","Neither nor","Disagree","Monthly","Female","No","gul_2_grey.png","1","2",4.5706,1,"yellow","edited"
"42uniqueohyesiamunique42",27,"No","1","Neither nor","Disagree","Monthly","Female","No","orange_1_original.png","1","1",3.7555,2,"orange","original"
"42uniqueohyesiamunique42",27,"No","2","Neither nor","Disagree","Monthly","Female","No","gul_2_original.png","1","2",2.362,3,"yellow","original"
"42uniqueohyesiamunique42",27,"No","0","Neither nor","Disagree","Monthly","Female","No","gul_0_grey.png","1","0",2.6341,4,"yellow","edited"
"42uniqueohyesiamunique42",27,"No","3","Neither nor","Disagree","Monthly","Female","No","gul_3_original.png","1","3",2.5872,5,"yellow","original"
"42uniqueohyesiamunique42",27,"No","1","Neither nor","Disagree","Monthly","Female","No","gul_1_grey.png","1","1",1.4166,6,"yellow","edited"
"42uniqueohyesiamunique42",27,"No","0","Neither nor","Disagree","Monthly","Female","No","orange_0_original.png","1","0",2.2878,7,"orange","original"
"42uniqueohyesiamunique42",27,"No","2","Neither nor","Disagree","Monthly","Female","No","orange_2_original.png","1","2",2.3142,8,"orange","original"
"42uniqueohyesiamunique42",27,"No","2","Neither nor","Disagree","Monthly","Female","No","orange_2_grey.png","1","2",1.4108,9,"orange","edited"
"42uniqueohyesiamunique42",27,"No","1","Neither nor","Disagree","Monthly","Female","No","gul_1_original.png","1","1",2.512,10,"yellow","original"
"42uniqueohyesiamunique42",27,"No","1","Neither nor","Disagree","Monthly","Female","No","orange_1_grey.png","1","1",3.9304,11,"orange","edited"
"42uniqueohyesiamunique42",27,"No","3","Neither nor","Disagree","Monthly","Female","No","orange_3_original.png","1","3",2.5628,12,"orange","original"
"42uniqueohyesiamunique42",27,"No","3","Neither nor","Disagree","Monthly","Female","No","orange_3_grey.png","1","3",1.2208,13,"orange","edited"
"42uniqueohyesiamunique42",27,"No","3","Neither nor","Disagree","Monthly","Female","No","gul_3_grey.png","1","3",1.7314,14,"yellow","edited"
"42uniqueohyesiamunique42",27,"No","0","Neither nor","Disagree","Monthly","Female","No","orange_0_grey.png","1","0",2.1011,15,"orange","edited"
"579998",26,"No","2","Disagree","Agree","Every 3rd month","Male","No","orange_2_grey.png","1","2",2.5529,0,"orange","edited"
"579998",26,"No","3","Disagree","Agree","Every 3rd month","Male","No","gul_3_grey.png","1","3",1.4286,1,"yellow","edited"
"579998",26,"No","1","Disagree","Agree","Every 3rd month","Male","No","gul_1_grey.png","1","1",0.7255,2,"yellow","edited"
"579998",26,"No","3","Disagree","Agree","Every 3rd month","Male","No","orange_3_grey.png","1","3",0.8981,3,"orange","edited"
"579998",26,"No","0","Disagree","Agree","Every 3rd month","Male","No","gul_0_grey.png","1","0",2.1015,4,"yellow","edited"
"579998",26,"No","3","Disagree","Agree","Every 3rd month","Male","No","orange_3_original.png","0","4",4.0239,5,"orange","original"
"579998",26,"No","1","Disagree","Agree","Every 3rd month","Male","No","gul_1_original.png","0","4",1.3956,6,"yellow","original"
"579998",26,"No","0","Disagree","Agree","Every 3rd month","Male","No","gul_0_original.png","0","4",1.3203,7,"yellow","original"
"579998",26,"No","0","Disagree","Agree","Every 3rd month","Male","No","orange_0_original.png","0","4",1.3642,8,"orange","original"
"579998",26,"No","2","Disagree","Agree","Every 3rd month","Male","No","orange_2_original.png","1","2",2.9933,9,"orange","original"
"579998",26,"No","1","Disagree","Agree","Every 3rd month","Male","No","orange_1_grey.png","1","1",0.7123,10,"orange","edited"
"579998",26,"No","3","Disagree","Agree","Every 3rd month","Male","No","gul_3_original.png","1","3",3.2194,11,"yellow","original"
"579998",26,"No","1","Disagree","Agree","Every 3rd month","Male","No","orange_1_original.png","1","1",1.6005,12,"orange","original"
"579998",26,"No","0","Disagree","Agree","Every 3rd month","Male","No","orange_0_grey.png","1","0",0.9892,13,"orange","edited"
"579998",26,"No","2","Disagree","Agree","Every 3rd month","Male","No","gul_2_original.png","1","2",1.3479,14,"yellow","original"
"579998",26,"No","2","Disagree","Agree","Every 3rd month","Male","No","gul_2_grey.png","1","2",1.1637,15,"yellow","edited"
"abcabc",25,"No","1","Disagree","Disagree","Semi-annually","Male","No","gul_1_grey.png","1","1",3.938,0,"yellow","edited"
"abcabc",25,"No","3","Disagree","Disagree","Semi-annually","Male","No","gul_3_original.png","1","3",1.279,1,"yellow","original"
"abcabc",25,"No","3","Disagree","Disagree","Semi-annually","Male","No","orange_3_original.png","1","3",1.145,2,"orange","original"
"abcabc",25,"No","0","Disagree","Disagree","Semi-annually","Male","No","gul_0_original.png","1","0",2.922,3,"yellow","original"
"abcabc",25,"No","2","Disagree","Disagree","Semi-annually","Male","No","gul_2_original.png","1","2",1.184,4,"yellow","original"
"abcabc",25,"No","1","Disagree","Disagree","Semi-annually","Male","No","orange_1_grey.png","1","1",1.934,5,"orange","edited"
"abcabc",25,"No","0","Disagree","Disagree","Semi-annually","Male","No","orange_0_original.png","1","0",2.337,6,"orange","original"
"abcabc",25,"No","2","Disagree","Disagree","Semi-annually","Male","No","gul_2_grey.png","1","2",1.256,7,"yellow","edited"
"abcabc",25,"No","1","Disagree","Disagree","Semi-annually","Male","No","orange_1_original.png","1","1",1.09,8,"orange","original"
"abcabc",25,"No","0","Disagree","Disagree","Semi-annually","Male","No","gul_0_grey.png","1","0",1.066,9,"yellow","edited"
"abcabc",25,"No","2","Disagree","Disagree","Semi-annually","Male","No","orange_2_grey.png","1","2",0.731,10,"orange","edited"
"abcabc",25,"No","3","Disagree","Disagree","Semi-annually","Male","No","orange_3_grey.png","1","3",0.679,11,"orange","edited"
"abcabc",25,"No","3","Disagree","Disagree","Semi-annually","Male","No","gul_3_grey.png","1","3",0.888,12,"yellow","edited"
"abcabc",25,"No","1","Disagree","Disagree","Semi-annually","Male","No","gul_1_original.png","1","1",1.164,13,"yellow","original"
"abcabc",25,"No","0","Disagree","Disagree","Semi-annually","Male","No","orange_0_grey.png","1","0",0.83,14,"orange","edited"
"abcabc",25,"No","2","Disagree","Disagree","Semi-annually","Male","No","orange_2_original.png","1","2",0.73,15,"orange","original"
"asdvknaæksjndvæjn",26,"No","0","Agree","Disagree","Weekly","Male","No","gul_0_grey.png","0","4",14.1977,0,"yellow","edited"
"asdvknaæksjndvæjn",26,"No","0","Agree","Disagree","Weekly","Male","No","gul_0_original.png","0","3",3.1067,1,"yellow","original"
"asdvknaæksjndvæjn",26,"No","3","Agree","Disagree","Weekly","Male","No","gul_3_original.png","1","3",1.7027,2,"yellow","original"
"asdvknaæksjndvæjn",26,"No","2","Agree","Disagree","Weekly","Male","No","gul_2_original.png","1","2",0.9452,3,"yellow","original"
"asdvknaæksjndvæjn",26,"No","3","Agree","Disagree","Weekly","Male","No","gul_3_grey.png","1","3",1.0046,4,"yellow","edited"
"asdvknaæksjndvæjn",26,"No","3","Agree","Disagree","Weekly","Male","No","orange_3_grey.png","1","3",3.3598,5,"orange","edited"
"asdvknaæksjndvæjn",26,"No","2","Agree","Disagree","Weekly","Male","No","gul_2_grey.png","1","2",1.0359,6,"yellow","edited"
"asdvknaæksjndvæjn",26,"No","3","Agree","Disagree","Weekly","Male","No","orange_3_original.png","1","3",1.2095,7,"orange","original"
"asdvknaæksjndvæjn",26,"No","2","Agree","Disagree","Weekly","Male","No","orange_2_original.png","1","2",0.984,8,"orange","original"
"asdvknaæksjndvæjn",26,"No","1","Agree","Disagree","Weekly","Male","No","orange_1_original.png","1","1",0.9438,9,"orange","original"
"asdvknaæksjndvæjn",26,"No","0","Agree","Disagree","Weekly","Male","No","orange_0_grey.png","0","1",4.5531,10,"orange","edited"
"asdvknaæksjndvæjn",26,"No","1","Agree","Disagree","Weekly","Male","No","gul_1_original.png","1","1",1.6381,11,"yellow","original"
"asdvknaæksjndvæjn",26,"No","2","Agree","Disagree","Weekly","Male","No","orange_2_grey.png","1","2",1.0195,12,"orange","edited"
"asdvknaæksjndvæjn",26,"No","0","Agree","Disagree","Weekly","Male","No","orange_0_original.png","0","2",4.5771,13,"orange","original"
"asdvknaæksjndvæjn",26,"No","1","Agree","Disagree","Weekly","Male","No","gul_1_grey.png","1","1",1.001,14,"yellow","edited"
"asdvknaæksjndvæjn",26,"No","1","Agree","Disagree","Weekly","Male","No","orange_1_grey.png","1","1",1.4512,15,"orange","edited"
"au691988",28,"No","0","Disagree","Agree","Every 3rd month","Male","No","gul_0_original.png","1","0",6.4384,0,"yellow","original"
"au691988",28,"No","0","Disagree","Agree","Every 3rd month","Male","No","orange_0_original.png","1","0",7.1854,1,"orange","original"
"au691988",28,"No","2","Disagree","Agree","Every 3rd month","Male","No","orange_2_grey.png","1","2",3.0333,2,"orange","edited"
"au691988",28,"No","1","Disagree","Agree","Every 3rd month","Male","No","gul_1_grey.png","1","1",1.6789,3,"yellow","edited"
"au691988",28,"No","1","Disagree","Agree","Every 3rd month","Male","No","gul_1_original.png","1","1",1.0053,4,"yellow","original"
"au691988",28,"No","3","Disagree","Agree","Every 3rd month","Male","No","orange_3_grey.png","1","3",1.012,5,"orange","edited"
"au691988",28,"No","1","Disagree","Agree","Every 3rd month","Male","No","orange_1_original.png","1","1",0.9375,6,"orange","original"
"au691988",28,"No","0","Disagree","Agree","Every 3rd month","Male","No","gul_0_grey.png","1","0",1.7391,7,"yellow","edited"
"au691988",28,"No","1","Disagree","Agree","Every 3rd month","Male","No","orange_1_grey.png","1","1",1.317,8,"orange","edited"
"au691988",28,"No","2","Disagree","Agree","Every 3rd month","Male","No","gul_2_grey.png","1","2",1.1282,9,"yellow","edited"
"au691988",28,"No","3","Disagree","Agree","Every 3rd month","Male","No","orange_3_original.png","1","3",0.9112,10,"orange","original"
"au691988",28,"No","3","Disagree","Agree","Every 3rd month","Male","No","gul_3_grey.png","1","3",1.2279,11,"yellow","edited"
"au691988",28,"No","2","Disagree","Agree","Every 3rd month","Male","No","gul_2_original.png","1","2",1.2312,12,"yellow","original"
"au691988",28,"No","0","Disagree","Agree","Every 3rd month","Male","No","orange_0_grey.png","1","0",0.8977,13,"orange","edited"
"au691988",28,"No","3","Disagree","Agree","Every 3rd month","Male","No","gul_3_original.png","1","3",1.4074,14,"yellow","original"
"au691988",28,"No","2","Disagree","Agree","Every 3rd month","Male","No","orange_2_original.png","1","2",0.9034,15,"orange","original"
"Ben24jada",56,"No","0","Neither nor","Disagree","Monthly","Female","No","orange_0_grey.png","0","2",43.7632,0,"orange","edited"
"Ben24jada",56,"No","0","Neither nor","Disagree","Monthly","Female","No","orange_0_original.png","0","4",15.8054,1,"orange","original"
"Ben24jada",56,"No","1","Neither nor","Disagree","Monthly","Female","No","orange_1_grey.png","1","1",4.842,2,"orange","edited"
"Ben24jada",56,"No","2","Neither nor","Disagree","Monthly","Female","No","orange_2_grey.png","1","2",2.4326,3,"orange","edited"
"Ben24jada",56,"No","0","Neither nor","Disagree","Monthly","Female","No","gul_0_original.png","1","0",31.4589,4,"yellow","original"
"Ben24jada",56,"No","1","Neither nor","Disagree","Monthly","Female","No","orange_1_original.png","1","1",4.1091,5,"orange","original"
"Ben24jada",56,"No","3","Neither nor","Disagree","Monthly","Female","No","gul_3_original.png","0","0",7.1136,6,"yellow","original"
"Ben24jada",56,"No","1","Neither nor","Disagree","Monthly","Female","No","gul_1_original.png","1","1",4.8292,7,"yellow","original"
"Ben24jada",56,"No","2","Neither nor","Disagree","Monthly","Female","No","gul_2_original.png","1","2",1.8119,8,"yellow","original"
"Ben24jada",56,"No","2","Neither nor","Disagree","Monthly","Female","No","gul_2_grey.png","1","2",2.6384,9,"yellow","edited"
"Ben24jada",56,"No","3","Neither nor","Disagree","Monthly","Female","No","gul_3_grey.png","1","3",5.0365,10,"yellow","edited"
"Ben24jada",56,"No","3","Neither nor","Disagree","Monthly","Female","No","orange_3_original.png","1","3",6.3153,11,"orange","original"
"Ben24jada",56,"No","0","Neither nor","Disagree","Monthly","Female","No","gul_0_grey.png","1","0",4.9438,12,"yellow","edited"
"Ben24jada",56,"No","2","Neither nor","Disagree","Monthly","Female","No","orange_2_original.png","1","2",3.4832,13,"orange","original"
"Ben24jada",56,"No","1","Neither nor","Disagree","Monthly","Female","No","gul_1_grey.png","1","1",1.8621,14,"yellow","edited"
"Ben24jada",56,"No","3","Neither nor","Disagree","Monthly","Female","No","orange_3_grey.png","1","3",2.6249,15,"orange","edited"
"brætspil33445",19,"No","1","Agree","Agree","Every 3rd month","Female","No","gul_1_original.png","1","1",2.0784,0,"yellow","original"
"brætspil33445",19,"No","2","Agree","Agree","Every 3rd month","Female","No","gul_2_grey.png","1","2",2.8118,1,"yellow","edited"
"brætspil33445",19,"No","3","Agree","Agree","Every 3rd month","Female","No","gul_3_original.png","1","3",2.7045,2,"yellow","original"
"brætspil33445",19,"No","1","Agree","Agree","Every 3rd month","Female","No","gul_1_grey.png","1","1",1.2954,3,"yellow","edited"
"brætspil33445",19,"No","3","Agree","Agree","Every 3rd month","Female","No","gul_3_grey.png","1","3",1.4097,4,"yellow","edited"
"brætspil33445",19,"No","3","Agree","Agree","Every 3rd month","Female","No","orange_3_original.png","1","3",1.1264,5,"orange","original"
"brætspil33445",19,"No","0","Agree","Agree","Every 3rd month","Female","No","orange_0_grey.png","1","0",2.5423,6,"orange","edited"
"brætspil33445",19,"No","0","Agree","Agree","Every 3rd month","Female","No","orange_0_original.png","1","0",2.8336,7,"orange","original"
"brætspil33445",19,"No","3","Agree","Agree","Every 3rd month","Female","No","orange_3_grey.png","1","3",1.2012,8,"orange","edited"
"brætspil33445",19,"No","2","Agree","Agree","Every 3rd month","Female","No","gul_2_original.png","1","2",1.8948,9,"yellow","original"
"brætspil33445",19,"No","1","Agree","Agree","Every 3rd month","Female","No","orange_1_grey.png","1","1",1.1348,10,"orange","edited"
"brætspil33445",19,"No","1","Agree","Agree","Every 3rd month","Female","No","orange_1_original.png","1","1",0.9343,11,"orange","original"
"brætspil33445",19,"No","0","Agree","Agree","Every 3rd month","Female","No","gul_0_grey.png","1","0",1.9542,12,"yellow","edited"
"brætspil33445",19,"No","2","Agree","Agree","Every 3rd month","Female","No","orange_2_grey.png","1","2",1.4737,13,"orange","edited"
"brætspil33445",19,"No","2","Agree","Agree","Every 3rd month","Female","No","orange_2_original.png","1","2",1.2308,14,"orange","original"
"brætspil33445",19,"No","0","Agree","Agree","Every 3rd month","Female","No","gul_0_original.png","1","0",2.2108,15,"yellow","original"
"DBF47",24,"No","1","Disagree","Disagree","Every 3rd month","Male","No","orange_1_original.png","1","1",3.9341,0,"orange","original"
"DBF47",24,"No","1","Disagree","Disagree","Every 3rd month","Male","No","gul_1_original.png","1","1",2.2328,1,"yellow","original"
"DBF47",24,"No","2","Disagree","Disagree","Every 3rd month","Male","No","orange_2_grey.png","1","2",1.103,2,"orange","edited"
"DBF47",24,"No","2","Disagree","Disagree","Every 3rd month","Male","No","gul_2_original.png","1","2",1.4687,3,"yellow","original"
"DBF47",24,"No","2","Disagree","Disagree","Every 3rd month","Male","No","orange_2_original.png","1","2",2.2027,4,"orange","original"
"DBF47",24,"No","3","Disagree","Disagree","Every 3rd month","Male","No","orange_3_grey.png","1","3",1.0173,5,"orange","edited"
"DBF47",24,"No","0","Disagree","Disagree","Every 3rd month","Male","No","gul_0_original.png","1","0",2.2053,6,"yellow","original"
"DBF47",24,"No","3","Disagree","Disagree","Every 3rd month","Male","No","gul_3_original.png","1","3",1.0245,7,"yellow","original"
"DBF47",24,"No","3","Disagree","Disagree","Every 3rd month","Male","No","orange_3_original.png","1","3",2.0394,8,"orange","original"
"DBF47",24,"No","3","Disagree","Disagree","Every 3rd month","Male","No","gul_3_grey.png","1","3",1.5214,9,"yellow","edited"
"DBF47",24,"No","0","Disagree","Disagree","Every 3rd month","Male","No","orange_0_original.png","1","0",1.4476,10,"orange","original"
"DBF47",24,"No","1","Disagree","Disagree","Every 3rd month","Male","No","gul_1_grey.png","1","1",0.7878,11,"yellow","edited"
"DBF47",24,"No","1","Disagree","Disagree","Every 3rd month","Male","No","orange_1_grey.png","1","1",0.7427,12,"orange","edited"
"DBF47",24,"No","0","Disagree","Disagree","Every 3rd month","Male","No","gul_0_grey.png","1","0",1.0074,13,"yellow","edited"
"DBF47",24,"No","2","Disagree","Disagree","Every 3rd month","Male","No","gul_2_grey.png","1","2",0.9639,14,"yellow","edited"
"DBF47",24,"No","0","Disagree","Disagree","Every 3rd month","Male","No","orange_0_grey.png","1","0",1.0456,15,"orange","edited"
"eae24",24,"No","0","Agree","Agree","Monthly","Female","No","orange_0_original.png","0","4",6.1292,0,"orange","original"
"eae24",24,"No","3","Agree","Agree","Monthly","Female","No","gul_3_original.png","0","4",5.7001,1,"yellow","original"
"eae24",24,"No","2","Agree","Agree","Monthly","Female","No","gul_2_grey.png","0","3",6.1531,2,"yellow","edited"
"eae24",24,"No","1","Agree","Agree","Monthly","Female","No","orange_1_grey.png","1","1",4.0191,3,"orange","edited"
"eae24",24,"No","1","Agree","Agree","Monthly","Female","No","gul_1_original.png","0","2",1.7692,4,"yellow","original"
"eae24",24,"No","3","Agree","Agree","Monthly","Female","No","gul_3_grey.png","1","3",1.3402,5,"yellow","edited"
"eae24",24,"No","3","Agree","Agree","Monthly","Female","No","orange_3_original.png","1","3",1.2243,6,"orange","original"
"eae24",24,"No","1","Agree","Agree","Monthly","Female","No","gul_1_grey.png","1","1",3.0222,7,"yellow","edited"
"eae24",24,"No","1","Agree","Agree","Monthly","Female","No","orange_1_original.png","1","1",3.3529,8,"orange","original"
"eae24",24,"No","3","Agree","Agree","Monthly","Female","No","orange_3_grey.png","1","3",1.2514,9,"orange","edited"
"eae24",24,"No","2","Agree","Agree","Monthly","Female","No","gul_2_original.png","1","2",1.4104,10,"yellow","original"
"eae24",24,"No","2","Agree","Agree","Monthly","Female","No","orange_2_grey.png","1","2",0.8358,11,"orange","edited"
"eae24",24,"No","0","Agree","Agree","Monthly","Female","No","gul_0_grey.png","0","1",2.4855,12,"yellow","edited"
"eae24",24,"No","2","Agree","Agree","Monthly","Female","No","orange_2_original.png","1","2",1.0893,13,"orange","original"
"eae24",24,"No","0","Agree","Agree","Monthly","Female","No","gul_0_original.png","0","1",3.557,14,"yellow","original"
"eae24",24,"No","0","Agree","Agree","Monthly","Female","No","orange_0_grey.png","1","0",3.6898,15,"orange","edited"
"erew326adw",26,"No","1","Neither nor","Disagree","Monthly","Female","No","orange_1_grey.png","1","1",3.96,0,"orange","edited"
"erew326adw",26,"No","0","Neither nor","Disagree","Monthly","Female","No","orange_0_original.png","0","4",4.03,1,"orange","original"
"erew326adw",26,"No","2","Neither nor","Disagree","Monthly","Female","No","orange_2_original.png","1","2",1.75,2,"orange","original"
"erew326adw",26,"No","2","Neither nor","Disagree","Monthly","Female","No","gul_2_grey.png","1","2",1.235,3,"yellow","edited"
"erew326adw",26,"No","1","Neither nor","Disagree","Monthly","Female","No","gul_1_original.png","1","1",2.554,4,"yellow","original"
"erew326adw",26,"No","1","Neither nor","Disagree","Monthly","Female","No","orange_1_original.png","1","1",1.187,5,"orange","original"
"erew326adw",26,"No","0","Neither nor","Disagree","Monthly","Female","No","orange_0_grey.png","1","0",1.918,6,"orange","edited"
"erew326adw",26,"No","3","Neither nor","Disagree","Monthly","Female","No","gul_3_grey.png","1","3",1.266,7,"yellow","edited"
"erew326adw",26,"No","3","Neither nor","Disagree","Monthly","Female","No","orange_3_grey.png","1","3",1.72,8,"orange","edited"
"erew326adw",26,"No","1","Neither nor","Disagree","Monthly","Female","No","gul_1_grey.png","1","1",0.884,9,"yellow","edited"
"erew326adw",26,"No","2","Neither nor","Disagree","Monthly","Female","No","orange_2_grey.png","1","2",1.037,10,"orange","edited"
"erew326adw",26,"No","3","Neither nor","Disagree","Monthly","Female","No","gul_3_original.png","1","3",1.72,11,"yellow","original"
"erew326adw",26,"No","2","Neither nor","Disagree","Monthly","Female","No","gul_2_original.png","1","2",0.988,12,"yellow","original"
"erew326adw",26,"No","0","Neither nor","Disagree","Monthly","Female","No","gul_0_grey.png","1","0",1.089,13,"yellow","edited"
"erew326adw",26,"No","3","Neither nor","Disagree","Monthly","Female","No","orange_3_original.png","1","3",2.048,14,"orange","original"
"erew326adw",26,"No","0","Neither nor","Disagree","Monthly","Female","No","gul_0_original.png","1","0",3.14,15,"yellow","original"
"gyiu98",22,"No","2","Disagree","Disagree","Monthly","Female","No","orange_2_original.png","1","2",3.189,0,"orange","original"
"gyiu98",22,"No","3","Disagree","Disagree","Monthly","Female","No","gul_3_original.png","1","3",1.984,1,"yellow","original"
"gyiu98",22,"No","1","Disagree","Disagree","Monthly","Female","No","gul_1_original.png","1","1",1.06,2,"yellow","original"
"gyiu98",22,"No","2","Disagree","Disagree","Monthly","Female","No","orange_2_grey.png","1","2",1.467,3,"orange","edited"
"gyiu98",22,"No","3","Disagree","Disagree","Monthly","Female","No","orange_3_grey.png","1","3",0.967,4,"orange","edited"
"gyiu98",22,"No","1","Disagree","Disagree","Monthly","Female","No","orange_1_grey.png","1","1",0.771,5,"orange","edited"
"gyiu98",22,"No","0","Disagree","Disagree","Monthly","Female","No","gul_0_original.png","1","0",3.914,6,"yellow","original"
"gyiu98",22,"No","3","Disagree","Disagree","Monthly","Female","No","gul_3_grey.png","1","3",1.337,7,"yellow","edited"
"gyiu98",22,"No","0","Disagree","Disagree","Monthly","Female","No","orange_0_original.png","1","0",1.474,8,"orange","original"
"gyiu98",22,"No","3","Disagree","Disagree","Monthly","Female","No","orange_3_original.png","1","3",3.096,9,"orange","original"
"gyiu98",22,"No","2","Disagree","Disagree","Monthly","Female","No","gul_2_grey.png","1","2",1.551,10,"yellow","edited"
"gyiu98",22,"No","2","Disagree","Disagree","Monthly","Female","No","gul_2_original.png","1","2",4.809,11,"yellow","original"
"gyiu98",22,"No","0","Disagree","Disagree","Monthly","Female","No","orange_0_grey.png","1","0",1.791,12,"orange","edited"
"gyiu98",22,"No","1","Disagree","Disagree","Monthly","Female","No","orange_1_original.png","1","1",2.156,13,"orange","original"
"gyiu98",22,"No","1","Disagree","Disagree","Monthly","Female","No","gul_1_grey.png","1","1",1.666,14,"yellow","edited"
"gyiu98",22,"No","0","Disagree","Disagree","Monthly","Female","No","gul_0_grey.png","1","0",1.56,15,"yellow","edited"
"haps123",24,"No","1","Neither nor","Strongly agree","Monthly","Female","Yes","gul_1_original.png","1","1",2.923,0,"yellow","original"
"haps123",24,"No","2","Neither nor","Strongly agree","Monthly","Female","Yes","orange_2_grey.png","1","2",1.723,1,"orange","edited"
"haps123",24,"No","0","Neither nor","Strongly agree","Monthly","Female","Yes","gul_0_original.png","1","0",4.653,2,"yellow","original"
"haps123",24,"No","3","Neither nor","Strongly agree","Monthly","Female","Yes","gul_3_original.png","1","3",1.273,3,"yellow","original"
"haps123",24,"No","0","Neither nor","Strongly agree","Monthly","Female","Yes","orange_0_grey.png","1","0",1.438,4,"orange","edited"
"haps123",24,"No","1","Neither nor","Strongly agree","Monthly","Female","Yes","gul_1_grey.png","1","1",1.496,5,"yellow","edited"
"haps123",24,"No","2","Neither nor","Strongly agree","Monthly","Female","Yes","gul_2_original.png","1","2",1.021,6,"yellow","original"
"haps123",24,"No","3","Neither nor","Strongly agree","Monthly","Female","Yes","gul_3_grey.png","1","3",1.018,7,"yellow","edited"
"haps123",24,"No","2","Neither nor","Strongly agree","Monthly","Female","Yes","gul_2_grey.png","1","2",0.942,8,"yellow","edited"
"haps123",24,"No","1","Neither nor","Strongly agree","Monthly","Female","Yes","orange_1_original.png","1","1",1.624,9,"orange","original"
"haps123",24,"No","3","Neither nor","Strongly agree","Monthly","Female","Yes","orange_3_original.png","1","3",1.055,10,"orange","original"
"haps123",24,"No","0","Neither nor","Strongly agree","Monthly","Female","Yes","gul_0_grey.png","1","0",1.827,11,"yellow","edited"
"haps123",24,"No","0","Neither nor","Strongly agree","Monthly","Female","Yes","orange_0_original.png","1","0",1.39,12,"orange","original"
"haps123",24,"No","2","Neither nor","Strongly agree","Monthly","Female","Yes","orange_2_original.png","1","2",1.113,13,"orange","original"
"haps123",24,"No","3","Neither nor","Strongly agree","Monthly","Female","Yes","orange_3_grey.png","1","3",0.94,14,"orange","edited"
"haps123",24,"No","1","Neither nor","Strongly agree","Monthly","Female","Yes","orange_1_grey.png","1","1",1.474,15,"orange","edited"
"hej1721",24,"No","2","Strongly agree","Agree","Monthly","Female","Yes","orange_2_grey.png","1","2",3.4891,0,"orange","edited"
"hej1721",24,"No","2","Strongly agree","Agree","Monthly","Female","Yes","orange_2_original.png","1","2",3.7165,1,"orange","original"
"hej1721",24,"No","2","Strongly agree","Agree","Monthly","Female","Yes","gul_2_grey.png","1","2",2.303,2,"yellow","edited"
"hej1721",24,"No","0","Strongly agree","Agree","Monthly","Female","Yes","orange_0_grey.png","1","0",2.5957,3,"orange","edited"
"hej1721",24,"No","3","Strongly agree","Agree","Monthly","Female","Yes","gul_3_grey.png","1","3",1.6766,4,"yellow","edited"
"hej1721",24,"No","0","Strongly agree","Agree","Monthly","Female","Yes","orange_0_original.png","1","0",2.1451,5,"orange","original"
"hej1721",24,"No","0","Strongly agree","Agree","Monthly","Female","Yes","gul_0_grey.png","1","0",1.5379,6,"yellow","edited"
"hej1721",24,"No","1","Strongly agree","Agree","Monthly","Female","Yes","orange_1_original.png","1","1",1.2372,7,"orange","original"
"hej1721",24,"No","1","Strongly agree","Agree","Monthly","Female","Yes","orange_1_grey.png","1","1",0.9686,8,"orange","edited"
"hej1721",24,"No","3","Strongly agree","Agree","Monthly","Female","Yes","gul_3_original.png","1","3",1.6286,9,"yellow","original"
"hej1721",24,"No","3","Strongly agree","Agree","Monthly","Female","Yes","orange_3_grey.png","1","3",0.6966,10,"orange","edited"
"hej1721",24,"No","1","Strongly agree","Agree","Monthly","Female","Yes","gul_1_grey.png","1","1",1.1175,11,"yellow","edited"
"hej1721",24,"No","3","Strongly agree","Agree","Monthly","Female","Yes","orange_3_original.png","1","3",1.0498,12,"orange","original"
"hej1721",24,"No","2","Strongly agree","Agree","Monthly","Female","Yes","gul_2_original.png","0","1",1.2098,13,"yellow","original"
"hej1721",24,"No","0","Strongly agree","Agree","Monthly","Female","Yes","gul_0_original.png","1","0",1.6536,14,"yellow","original"
"hej1721",24,"No","1","Strongly agree","Agree","Monthly","Female","Yes","gul_1_original.png","1","1",1.6463,15,"yellow","original"
"hej7",25,"No","0","Strongly agree","Agree","Monthly","Female","No","orange_0_grey.png","1","0",8.029,0,"orange","edited"
"hej7",25,"No","3","Strongly agree","Agree","Monthly","Female","No","orange_3_grey.png","1","3",1.286,1,"orange","edited"
"hej7",25,"No","0","Strongly agree","Agree","Monthly","Female","No","gul_0_grey.png","1","0",1.369,2,"yellow","edited"
"hej7",25,"No","1","Strongly agree","Agree","Monthly","Female","No","gul_1_grey.png","1","1",1.127,3,"yellow","edited"
"hej7",25,"No","1","Strongly agree","Agree","Monthly","Female","No","gul_1_original.png","1","1",1.648,4,"yellow","original"
"hej7",25,"No","0","Strongly agree","Agree","Monthly","Female","No","gul_0_original.png","1","0",2.088,5,"yellow","original"
"hej7",25,"No","2","Strongly agree","Agree","Monthly","Female","No","orange_2_grey.png","1","2",1.168,6,"orange","edited"
"hej7",25,"No","1","Strongly agree","Agree","Monthly","Female","No","orange_1_original.png","1","1",1.262,7,"orange","original"
"hej7",25,"No","2","Strongly agree","Agree","Monthly","Female","No","orange_2_original.png","1","2",1.284,8,"orange","original"
"hej7",25,"No","3","Strongly agree","Agree","Monthly","Female","No","orange_3_original.png","1","3",0.956,9,"orange","original"
"hej7",25,"No","0","Strongly agree","Agree","Monthly","Female","No","orange_0_original.png","1","0",0.993,10,"orange","original"
"hej7",25,"No","2","Strongly agree","Agree","Monthly","Female","No","gul_2_original.png","1","2",1.537,11,"yellow","original"
"hej7",25,"No","1","Strongly agree","Agree","Monthly","Female","No","orange_1_grey.png","1","1",0.792,12,"orange","edited"
"hej7",25,"No","2","Strongly agree","Agree","Monthly","Female","No","gul_2_grey.png","1","2",1.494,13,"yellow","edited"
"hej7",25,"No","3","Strongly agree","Agree","Monthly","Female","No","gul_3_grey.png","1","3",0.888,14,"yellow","edited"
"hej7",25,"No","3","Strongly agree","Agree","Monthly","Female","No","gul_3_original.png","1","3",2.135,15,"yellow","original"
"HØNS112",17,"No","1","Agree","Agree","Every 3rd month","Female","No","gul_1_grey.png","1","1",6.51,0,"yellow","edited"
"HØNS112",17,"No","1","Agree","Agree","Every 3rd month","Female","No","orange_1_original.png","1","1",2.779,1,"orange","original"
"HØNS112",17,"No","2","Agree","Agree","Every 3rd month","Female","No","gul_2_grey.png","1","2",1.8381,2,"yellow","edited"
"HØNS112",17,"No","3","Agree","Agree","Every 3rd month","Female","No","gul_3_original.png","1","3",3.6574,3,"yellow","original"
"HØNS112",17,"No","2","Agree","Agree","Every 3rd month","Female","No","orange_2_grey.png","1","2",1.6896,4,"orange","edited"
"HØNS112",17,"No","2","Agree","Agree","Every 3rd month","Female","No","gul_2_original.png","1","2",2.3937,5,"yellow","original"
"HØNS112",17,"No","0","Agree","Agree","Every 3rd month","Female","No","orange_0_grey.png","1","0",3.1815,6,"orange","edited"
"HØNS112",17,"No","3","Agree","Agree","Every 3rd month","Female","No","orange_3_grey.png","1","3",2.2464,7,"orange","edited"
"HØNS112",17,"No","3","Agree","Agree","Every 3rd month","Female","No","gul_3_grey.png","1","3",2.7098,8,"yellow","edited"
"HØNS112",17,"No","1","Agree","Agree","Every 3rd month","Female","No","orange_1_grey.png","1","1",1.7795,9,"orange","edited"
"HØNS112",17,"No","3","Agree","Agree","Every 3rd month","Female","No","orange_3_original.png","1","3",2.7287,10,"orange","original"
"HØNS112",17,"No","2","Agree","Agree","Every 3rd month","Female","No","orange_2_original.png","1","2",2.298,11,"orange","original"
"HØNS112",17,"No","0","Agree","Agree","Every 3rd month","Female","No","orange_0_original.png","1","0",3.5358,12,"orange","original"
"HØNS112",17,"No","0","Agree","Agree","Every 3rd month","Female","No","gul_0_grey.png","1","0",1.9817,13,"yellow","edited"
"HØNS112",17,"No","1","Agree","Agree","Every 3rd month","Female","No","gul_1_original.png","1","1",1.8285,14,"yellow","original"
"HØNS112",17,"No","0","Agree","Agree","Every 3rd month","Female","No","gul_0_original.png","1","0",4.431,15,"yellow","original"
"Jegor62",61,"No","0","Neither nor","Neither nor","Monthly","Male","No","gul_0_grey.png","0","4",7.3918,0,"yellow","edited"
"Jegor62",61,"No","0","Neither nor","Neither nor","Monthly","Male","No","orange_0_grey.png","0","4",8.1372,1,"orange","edited"
"Jegor62",61,"No","2","Neither nor","Neither nor","Monthly","Male","No","gul_2_grey.png","1","2",5.4617,2,"yellow","edited"
"Jegor62",61,"No","1","Neither nor","Neither nor","Monthly","Male","No","gul_1_original.png","0","4",7.9644,3,"yellow","original"
"Jegor62",61,"No","2","Neither nor","Neither nor","Monthly","Male","No","orange_2_original.png","0","4",7.3846,4,"orange","original"
"Jegor62",61,"No","3","Neither nor","Neither nor","Monthly","Male","No","orange_3_grey.png","1","3",2.4604,5,"orange","edited"
"Jegor62",61,"No","2","Neither nor","Neither nor","Monthly","Male","No","gul_2_original.png","0","4",2.5967,6,"yellow","original"
"Jegor62",61,"No","3","Neither nor","Neither nor","Monthly","Male","No","orange_3_original.png","0","4",3.4076,7,"orange","original"
"Jegor62",61,"No","2","Neither nor","Neither nor","Monthly","Male","No","orange_2_grey.png","1","2",6.9851,8,"orange","edited"
"Jegor62",61,"No","1","Neither nor","Neither nor","Monthly","Male","No","orange_1_grey.png","1","1",1.3268,9,"orange","edited"
"Jegor62",61,"No","1","Neither nor","Neither nor","Monthly","Male","No","gul_1_grey.png","1","1",2.159,10,"yellow","edited"
"Jegor62",61,"No","3","Neither nor","Neither nor","Monthly","Male","No","gul_3_original.png","1","3",13.0177,11,"yellow","original"
"Jegor62",61,"No","3","Neither nor","Neither nor","Monthly","Male","No","gul_3_grey.png","1","3",6.2502,12,"yellow","edited"
"Jegor62",61,"No","0","Neither nor","Neither nor","Monthly","Male","No","orange_0_original.png","0","4",4.2114,13,"orange","original"
"Jegor62",61,"No","1","Neither nor","Neither nor","Monthly","Male","No","orange_1_original.png","0","4",4.3934,14,"orange","original"
"Jegor62",61,"No","0","Neither nor","Neither nor","Monthly","Male","No","gul_0_original.png","0","4",10.4147,15,"yellow","original"
"jyd78nhg79",18,"No","2","Agree","Disagree","Semi-annually","Female","No","orange_2_original.png","1","2",1.6173,0,"orange","original"
"jyd78nhg79",18,"No","3","Agree","Disagree","Semi-annually","Female","No","orange_3_original.png","1","3",1.5147,1,"orange","original"
"jyd78nhg79",18,"No","2","Agree","Disagree","Semi-annually","Female","No","gul_2_original.png","1","2",1.4598,2,"yellow","original"
"jyd78nhg79",18,"No","0","Agree","Disagree","Semi-annually","Female","No","gul_0_original.png","1","0",1.8973,3,"yellow","original"
"jyd78nhg79",18,"No","2","Agree","Disagree","Semi-annually","Female","No","orange_2_grey.png","1","2",1.2744,4,"orange","edited"
"jyd78nhg79",18,"No","3","Agree","Disagree","Semi-annually","Female","No","orange_3_grey.png","1","3",0.9488,5,"orange","edited"
"jyd78nhg79",18,"No","1","Agree","Disagree","Semi-annually","Female","No","gul_1_original.png","1","1",0.9419,6,"yellow","original"
"jyd78nhg79",18,"No","1","Agree","Disagree","Semi-annually","Female","No","orange_1_grey.png","1","1",1.0084,7,"orange","edited"
"jyd78nhg79",18,"No","1","Agree","Disagree","Semi-annually","Female","No","orange_1_original.png","1","1",1.2298,8,"orange","original"
"jyd78nhg79",18,"No","3","Agree","Disagree","Semi-annually","Female","No","gul_3_grey.png","1","3",1.1958,9,"yellow","edited"
"jyd78nhg79",18,"No","1","Agree","Disagree","Semi-annually","Female","No","gul_1_grey.png","1","1",0.7138,10,"yellow","edited"
"jyd78nhg79",18,"No","2","Agree","Disagree","Semi-annually","Female","No","gul_2_grey.png","1","2",0.9911,11,"yellow","edited"
"jyd78nhg79",18,"No","3","Agree","Disagree","Semi-annually","Female","No","gul_3_original.png","1","3",0.8944,12,"yellow","original"
"jyd78nhg79",18,"No","0","Agree","Disagree","Semi-annually","Female","No","orange_0_grey.png","1","0",0.993,13,"orange","edited"
"jyd78nhg79",18,"No","0","Agree","Disagree","Semi-annually","Female","No","orange_0_original.png","0","4",2.4422,14,"orange","original"
"jyd78nhg79",18,"No","0","Agree","Disagree","Semi-annually","Female","No","gul_0_grey.png","1","0",1.4764,15,"yellow","edited"
"K5gu78",23,"No","2","Neither nor","Neither nor","Semi-annually","Female","No","gul_2_grey.png","0","4",3.1587,0,"yellow","edited"
"K5gu78",23,"No","0","Neither nor","Neither nor","Semi-annually","Female","No","gul_0_grey.png","0","4",3.7474,1,"yellow","edited"
"K5gu78",23,"No","1","Neither nor","Neither nor","Semi-annually","Female","No","gul_1_grey.png","0","4",3.3794,2,"yellow","edited"
"K5gu78",23,"No","3","Neither nor","Neither nor","Semi-annually","Female","No","orange_3_grey.png","0","4",2.2388,3,"orange","edited"
"K5gu78",23,"No","1","Neither nor","Neither nor","Semi-annually","Female","No","orange_1_grey.png","1","1",2.9905,4,"orange","edited"
"K5gu78",23,"No","3","Neither nor","Neither nor","Semi-annually","Female","No","gul_3_grey.png","1","3",2.9544,5,"yellow","edited"
"K5gu78",23,"No","2","Neither nor","Neither nor","Semi-annually","Female","No","orange_2_original.png","1","2",2.1157,6,"orange","original"
"K5gu78",23,"No","1","Neither nor","Neither nor","Semi-annually","Female","No","gul_1_original.png","1","1",1.6824,7,"yellow","original"
"K5gu78",23,"No","0","Neither nor","Neither nor","Semi-annually","Female","No","orange_0_original.png","1","0",2.2286,8,"orange","original"
"K5gu78",23,"No","3","Neither nor","Neither nor","Semi-annually","Female","No","gul_3_original.png","1","3",2.2508,9,"yellow","original"
"K5gu78",23,"No","1","Neither nor","Neither nor","Semi-annually","Female","No","orange_1_original.png","1","1",1.3651,10,"orange","original"
"K5gu78",23,"No","0","Neither nor","Neither nor","Semi-annually","Female","No","gul_0_original.png","1","0",1.7199,11,"yellow","original"
"K5gu78",23,"No","0","Neither nor","Neither nor","Semi-annually","Female","No","orange_0_grey.png","1","0",1.2984,12,"orange","edited"
"K5gu78",23,"No","3","Neither nor","Neither nor","Semi-annually","Female","No","orange_3_original.png","1","3",1.5188,13,"orange","original"
"K5gu78",23,"No","2","Neither nor","Neither nor","Semi-annually","Female","No","orange_2_grey.png","1","2",1.0829,14,"orange","edited"
"K5gu78",23,"No","2","Neither nor","Neither nor","Semi-annually","Female","No","gul_2_original.png","1","2",0.9361,15,"yellow","original"
"KJ19",23,"No","0","Strongly agree","Strongly agree","Rarely","Female","No","gul_0_grey.png","1","0",10.07,0,"yellow","edited"
"KJ19",23,"No","1","Strongly agree","Strongly agree","Rarely","Female","No","gul_1_original.png","1","1",1.294,1,"yellow","original"
"KJ19",23,"No","1","Strongly agree","Strongly agree","Rarely","Female","No","orange_1_grey.png","1","1",1.36,2,"orange","edited"
"KJ19",23,"No","2","Strongly agree","Strongly agree","Rarely","Female","No","gul_2_grey.png","1","2",0.906,3,"yellow","edited"
"KJ19",23,"No","3","Strongly agree","Strongly agree","Rarely","Female","No","orange_3_original.png","1","3",1.171,4,"orange","original"
"KJ19",23,"No","2","Strongly agree","Strongly agree","Rarely","Female","No","orange_2_original.png","1","2",0.994,5,"orange","original"
"KJ19",23,"No","2","Strongly agree","Strongly agree","Rarely","Female","No","orange_2_grey.png","1","2",1.528,6,"orange","edited"
"KJ19",23,"No","1","Strongly agree","Strongly agree","Rarely","Female","No","gul_1_grey.png","1","1",1.048,7,"yellow","edited"
"KJ19",23,"No","3","Strongly agree","Strongly agree","Rarely","Female","No","orange_3_grey.png","1","3",0.981,8,"orange","edited"
"KJ19",23,"No","0","Strongly agree","Strongly agree","Rarely","Female","No","gul_0_original.png","1","0",2.611,9,"yellow","original"
"KJ19",23,"No","2","Strongly agree","Strongly agree","Rarely","Female","No","gul_2_original.png","1","2",1.179,10,"yellow","original"
"KJ19",23,"No","0","Strongly agree","Strongly agree","Rarely","Female","No","orange_0_grey.png","1","0",2.227,11,"orange","edited"
"KJ19",23,"No","0","Strongly agree","Strongly agree","Rarely","Female","No","orange_0_original.png","1","0",1.726,12,"orange","original"
"KJ19",23,"No","1","Strongly agree","Strongly agree","Rarely","Female","No","orange_1_original.png","1","1",1.949,13,"orange","original"
"KJ19",23,"No","3","Strongly agree","Strongly agree","Rarely","Female","No","gul_3_grey.png","1","3",1.542,14,"yellow","edited"
"KJ19",23,"No","3","Strongly agree","Strongly agree","Rarely","Female","No","gul_3_original.png","1","3",0.828,15,"yellow","original"
"KleinOgAbel",24,"No","1","Disagree","Strongly disagree","Weekly","Male","Yes","gul_1_original.png","0","4",2.6105,0,"yellow","original"
"KleinOgAbel",24,"No","2","Disagree","Strongly disagree","Weekly","Male","Yes","orange_2_original.png","1","2",2.7807,1,"orange","original"
"KleinOgAbel",24,"No","3","Disagree","Strongly disagree","Weekly","Male","Yes","orange_3_grey.png","1","3",1.1831,2,"orange","edited"
"KleinOgAbel",24,"No","3","Disagree","Strongly disagree","Weekly","Male","Yes","orange_3_original.png","0","4",1.6387,3,"orange","original"
"KleinOgAbel",24,"No","3","Disagree","Strongly disagree","Weekly","Male","Yes","gul_3_grey.png","1","3",1.2839,4,"yellow","edited"
"KleinOgAbel",24,"No","1","Disagree","Strongly disagree","Weekly","Male","Yes","orange_1_original.png","1","1",1.4996,5,"orange","original"
"KleinOgAbel",24,"No","2","Disagree","Strongly disagree","Weekly","Male","Yes","orange_2_grey.png","1","2",0.8855,6,"orange","edited"
"KleinOgAbel",24,"No","2","Disagree","Strongly disagree","Weekly","Male","Yes","gul_2_original.png","0","1",2e-04,7,"yellow","original"
"KleinOgAbel",24,"No","3","Disagree","Strongly disagree","Weekly","Male","Yes","gul_3_original.png","1","3",0.789,8,"yellow","original"
"KleinOgAbel",24,"No","1","Disagree","Strongly disagree","Weekly","Male","Yes","orange_1_grey.png","1","1",1.131,9,"orange","edited"
"KleinOgAbel",24,"No","0","Disagree","Strongly disagree","Weekly","Male","Yes","gul_0_original.png","0","4",3.2053,10,"yellow","original"
"KleinOgAbel",24,"No","0","Disagree","Strongly disagree","Weekly","Male","Yes","gul_0_grey.png","1","0",2.4718,11,"yellow","edited"
"KleinOgAbel",24,"No","0","Disagree","Strongly disagree","Weekly","Male","Yes","orange_0_original.png","1","0",1.5292,12,"orange","original"
"KleinOgAbel",24,"No","2","Disagree","Strongly disagree","Weekly","Male","Yes","gul_2_grey.png","1","2",1.2645,13,"yellow","edited"
"KleinOgAbel",24,"No","0","Disagree","Strongly disagree","Weekly","Male","Yes","orange_0_grey.png","1","0",1.3145,14,"orange","edited"
"KleinOgAbel",24,"No","1","Disagree","Strongly disagree","Weekly","Male","Yes","gul_1_grey.png","1","1",1.1042,15,"yellow","edited"
"lolhest123",19,"No","3","Agree","Agree","Monthly","Female","No","gul_3_grey.png","1","3",4.2519,0,"yellow","edited"
"lolhest123",19,"No","2","Agree","Agree","Monthly","Female","No","gul_2_grey.png","1","2",1.8414,1,"yellow","edited"
"lolhest123",19,"No","0","Agree","Agree","Monthly","Female","No","gul_0_grey.png","1","0",2.4791,2,"yellow","edited"
"lolhest123",19,"No","1","Agree","Agree","Monthly","Female","No","orange_1_original.png","1","1",1.0637,3,"orange","original"
"lolhest123",19,"No","1","Agree","Agree","Monthly","Female","No","gul_1_grey.png","1","1",0.9627,4,"yellow","edited"
"lolhest123",19,"No","2","Agree","Agree","Monthly","Female","No","orange_2_original.png","1","2",0.9741,5,"orange","original"
"lolhest123",19,"No","2","Agree","Agree","Monthly","Female","No","gul_2_original.png","1","2",1.8644,6,"yellow","original"
"lolhest123",19,"No","3","Agree","Agree","Monthly","Female","No","gul_3_original.png","1","3",1.0283,7,"yellow","original"
"lolhest123",19,"No","0","Agree","Agree","Monthly","Female","No","orange_0_grey.png","1","0",2.8695,8,"orange","edited"
"lolhest123",19,"No","0","Agree","Agree","Monthly","Female","No","orange_0_original.png","1","0",1.471,9,"orange","original"
"lolhest123",19,"No","3","Agree","Agree","Monthly","Female","No","orange_3_original.png","1","3",1.1352,10,"orange","original"
"lolhest123",19,"No","3","Agree","Agree","Monthly","Female","No","orange_3_grey.png","1","3",0.7083,11,"orange","edited"
"lolhest123",19,"No","0","Agree","Agree","Monthly","Female","No","gul_0_original.png","1","0",1.6313,12,"yellow","original"
"lolhest123",19,"No","2","Agree","Agree","Monthly","Female","No","orange_2_grey.png","1","2",1.2433,13,"orange","edited"
"lolhest123",19,"No","1","Agree","Agree","Monthly","Female","No","gul_1_original.png","1","1",0.9456,14,"yellow","original"
"lolhest123",19,"No","1","Agree","Agree","Monthly","Female","No","orange_1_grey.png","1","1",0.9041,15,"orange","edited"
"Lou97",26,"No","2","Neither nor","Disagree","Semi-annually","Female","No","orange_2_grey.png","1","2",3.5222,0,"orange","edited"
"Lou97",26,"No","3","Neither nor","Disagree","Semi-annually","Female","No","gul_3_grey.png","1","3",1.5707,1,"yellow","edited"
"Lou97",26,"No","1","Neither nor","Disagree","Semi-annually","Female","No","gul_1_grey.png","1","1",1.1727,2,"yellow","edited"
"Lou97",26,"No","2","Neither nor","Disagree","Semi-annually","Female","No","gul_2_original.png","1","2",3.4146,3,"yellow","original"
"Lou97",26,"No","2","Neither nor","Disagree","Semi-annually","Female","No","gul_2_grey.png","1","2",1.9892,4,"yellow","edited"
"Lou97",26,"No","2","Neither nor","Disagree","Semi-annually","Female","No","orange_2_original.png","1","2",1.6851,5,"orange","original"
"Lou97",26,"No","1","Neither nor","Disagree","Semi-annually","Female","No","orange_1_original.png","1","1",1.2368,6,"orange","original"
"Lou97",26,"No","0","Neither nor","Disagree","Semi-annually","Female","No","orange_0_original.png","1","0",8.2676,7,"orange","original"
"Lou97",26,"No","0","Neither nor","Disagree","Semi-annually","Female","No","gul_0_original.png","1","0",1.2402,8,"yellow","original"
"Lou97",26,"No","1","Neither nor","Disagree","Semi-annually","Female","No","gul_1_original.png","1","1",3.1722,9,"yellow","original"
"Lou97",26,"No","3","Neither nor","Disagree","Semi-annually","Female","No","gul_3_original.png","0","2",1.0828,10,"yellow","original"
"Lou97",26,"No","3","Neither nor","Disagree","Semi-annually","Female","No","orange_3_original.png","1","3",2.8502,11,"orange","original"
"Lou97",26,"No","1","Neither nor","Disagree","Semi-annually","Female","No","orange_1_grey.png","1","1",1.332,12,"orange","edited"
"Lou97",26,"No","0","Neither nor","Disagree","Semi-annually","Female","No","gul_0_grey.png","1","0",1.9459,13,"yellow","edited"
"Lou97",26,"No","0","Neither nor","Disagree","Semi-annually","Female","No","orange_0_grey.png","1","0",2.3655,14,"orange","edited"
"Lou97",26,"No","3","Neither nor","Disagree","Semi-annually","Female","No","orange_3_grey.png","1","3",1.348,15,"orange","edited"
"Lynge31",25,"No","1","Neither nor","Disagree","Every 3rd month","Male","No","gul_1_original.png","0","4",4.771,0,"yellow","original"
"Lynge31",25,"No","3","Neither nor","Disagree","Every 3rd month","Male","No","orange_3_grey.png","1","3",3.299,1,"orange","edited"
"Lynge31",25,"No","1","Neither nor","Disagree","Every 3rd month","Male","No","gul_1_grey.png","0","4",1.67,2,"yellow","edited"
"Lynge31",25,"No","0","Neither nor","Disagree","Every 3rd month","Male","No","orange_0_original.png","0","4",1.368,3,"orange","original"
"Lynge31",25,"No","2","Neither nor","Disagree","Every 3rd month","Male","No","gul_2_grey.png","1","2",2.547,4,"yellow","edited"
"Lynge31",25,"No","3","Neither nor","Disagree","Every 3rd month","Male","No","gul_3_original.png","0","4",2.969,5,"yellow","original"
"Lynge31",25,"No","3","Neither nor","Disagree","Every 3rd month","Male","No","gul_3_grey.png","1","3",1.273,6,"yellow","edited"
"Lynge31",25,"No","2","Neither nor","Disagree","Every 3rd month","Male","No","gul_2_original.png","0","4",1.172,7,"yellow","original"
"Lynge31",25,"No","1","Neither nor","Disagree","Every 3rd month","Male","No","orange_1_grey.png","1","1",0.93,8,"orange","edited"
"Lynge31",25,"No","2","Neither nor","Disagree","Every 3rd month","Male","No","orange_2_grey.png","1","2",0.638,9,"orange","edited"
"Lynge31",25,"No","2","Neither nor","Disagree","Every 3rd month","Male","No","orange_2_original.png","0","4",0.88,10,"orange","original"
"Lynge31",25,"No","0","Neither nor","Disagree","Every 3rd month","Male","No","gul_0_original.png","0","4",1.198,11,"yellow","original"
"Lynge31",25,"No","3","Neither nor","Disagree","Every 3rd month","Male","No","orange_3_original.png","0","4",1.298,12,"orange","original"
"Lynge31",25,"No","0","Neither nor","Disagree","Every 3rd month","Male","No","gul_0_grey.png","1","0",2.168,13,"yellow","edited"
"Lynge31",25,"No","1","Neither nor","Disagree","Every 3rd month","Male","No","orange_1_original.png","0","4",1.837,14,"orange","original"
"Lynge31",25,"No","0","Neither nor","Disagree","Every 3rd month","Male","No","orange_0_grey.png","1","0",1.231,15,"orange","edited"
"M123",26,"No","0","Disagree","Disagree","Every 3rd month","Female","No","orange_0_original.png","1","0",7.6,0,"orange","original"
"M123",26,"No","3","Disagree","Disagree","Every 3rd month","Female","No","orange_3_grey.png","1","3",2.173,1,"orange","edited"
"M123",26,"No","0","Disagree","Disagree","Every 3rd month","Female","No","gul_0_original.png","1","0",3.821,2,"yellow","original"
"M123",26,"No","3","Disagree","Disagree","Every 3rd month","Female","No","orange_3_original.png","1","3",2.151,3,"orange","original"
"M123",26,"No","3","Disagree","Disagree","Every 3rd month","Female","No","gul_3_original.png","1","3",2.285,4,"yellow","original"
"M123",26,"No","2","Disagree","Disagree","Every 3rd month","Female","No","gul_2_original.png","1","2",1.447,5,"yellow","original"
"M123",26,"No","3","Disagree","Disagree","Every 3rd month","Female","No","gul_3_grey.png","1","3",1.449,6,"yellow","edited"
"M123",26,"No","2","Disagree","Disagree","Every 3rd month","Female","No","orange_2_grey.png","1","2",1.111,7,"orange","edited"
"M123",26,"No","1","Disagree","Disagree","Every 3rd month","Female","No","orange_1_original.png","1","1",2.455,8,"orange","original"
"M123",26,"No","1","Disagree","Disagree","Every 3rd month","Female","No","gul_1_original.png","1","1",1.396,9,"yellow","original"
"M123",26,"No","1","Disagree","Disagree","Every 3rd month","Female","No","gul_1_grey.png","1","1",1.114,10,"yellow","edited"
"M123",26,"No","1","Disagree","Disagree","Every 3rd month","Female","No","orange_1_grey.png","1","1",1.204,11,"orange","edited"
"M123",26,"No","0","Disagree","Disagree","Every 3rd month","Female","No","gul_0_grey.png","1","0",1.568,12,"yellow","edited"
"M123",26,"No","2","Disagree","Disagree","Every 3rd month","Female","No","gul_2_grey.png","1","2",1.689,13,"yellow","edited"
"M123",26,"No","2","Disagree","Disagree","Every 3rd month","Female","No","orange_2_original.png","1","2",1.633,14,"orange","original"
"M123",26,"No","0","Disagree","Disagree","Every 3rd month","Female","No","orange_0_grey.png","1","0",1.295,15,"orange","edited"
"OMY618",31,"No","1","Agree","Neither nor","Rarely","Male","No","gul_1_grey.png","1","1",5.899,0,"yellow","edited"
"OMY618",31,"No","1","Agree","Neither nor","Rarely","Male","No","gul_1_original.png","1","1",2.684,1,"yellow","original"
"OMY618",31,"No","3","Agree","Neither nor","Rarely","Male","No","orange_3_original.png","1","3",2.128,2,"orange","original"
"OMY618",31,"No","2","Agree","Neither nor","Rarely","Male","No","orange_2_original.png","1","2",1.121,3,"orange","original"
"OMY618",31,"No","1","Agree","Neither nor","Rarely","Male","No","orange_1_grey.png","1","1",0.638,4,"orange","edited"
"OMY618",31,"No","0","Agree","Neither nor","Rarely","Male","No","orange_0_grey.png","1","0",1.244,5,"orange","edited"
"OMY618",31,"No","2","Agree","Neither nor","Rarely","Male","No","orange_2_grey.png","1","2",0.719,6,"orange","edited"
"OMY618",31,"No","0","Agree","Neither nor","Rarely","Male","No","orange_0_original.png","1","0",1.39,7,"orange","original"
"OMY618",31,"No","2","Agree","Neither nor","Rarely","Male","No","gul_2_grey.png","1","2",1.45,8,"yellow","edited"
"OMY618",31,"No","0","Agree","Neither nor","Rarely","Male","No","gul_0_grey.png","1","0",0.834,9,"yellow","edited"
"OMY618",31,"No","3","Agree","Neither nor","Rarely","Male","No","orange_3_grey.png","1","3",1.029,10,"orange","edited"
"OMY618",31,"No","3","Agree","Neither nor","Rarely","Male","No","gul_3_grey.png","1","3",0.98,11,"yellow","edited"
"OMY618",31,"No","2","Agree","Neither nor","Rarely","Male","No","gul_2_original.png","1","2",1.958,12,"yellow","original"
"OMY618",31,"No","1","Agree","Neither nor","Rarely","Male","No","orange_1_original.png","1","1",1.242,13,"orange","original"
"OMY618",31,"No","0","Agree","Neither nor","Rarely","Male","No","gul_0_original.png","1","0",1.155,14,"yellow","original"
"OMY618",31,"No","3","Agree","Neither nor","Rarely","Male","No","gul_3_original.png","1","3",1.211,15,"yellow","original"
"tohitu1",24,"No","2","Strongly agree","Neither nor","Weekly","Female","Yes","orange_2_grey.png","1","2",2.2487,0,"orange","edited"
"tohitu1",24,"No","3","Strongly agree","Neither nor","Weekly","Female","Yes","gul_3_grey.png","1","3",1.0716,1,"yellow","edited"
"tohitu1",24,"No","3","Strongly agree","Neither nor","Weekly","Female","Yes","gul_3_original.png","1","3",2.1146,2,"yellow","original"
"tohitu1",24,"No","0","Strongly agree","Neither nor","Weekly","Female","Yes","orange_0_grey.png","1","0",1.3003,3,"orange","edited"
"tohitu1",24,"No","2","Strongly agree","Neither nor","Weekly","Female","Yes","gul_2_grey.png","1","2",0.9006,4,"yellow","edited"
"tohitu1",24,"No","2","Strongly agree","Neither nor","Weekly","Female","Yes","gul_2_original.png","1","2",1.8114,5,"yellow","original"
"tohitu1",24,"No","1","Strongly agree","Neither nor","Weekly","Female","Yes","orange_1_original.png","1","1",0.8924,6,"orange","original"
"tohitu1",24,"No","0","Strongly agree","Neither nor","Weekly","Female","Yes","orange_0_original.png","1","0",0.8397,7,"orange","original"
"tohitu1",24,"No","0","Strongly agree","Neither nor","Weekly","Female","Yes","gul_0_original.png","1","0",0.6699,8,"yellow","original"
"tohitu1",24,"No","1","Strongly agree","Neither nor","Weekly","Female","Yes","gul_1_original.png","1","1",1.042,9,"yellow","original"
"tohitu1",24,"No","1","Strongly agree","Neither nor","Weekly","Female","Yes","orange_1_grey.png","1","1",0.6998,10,"orange","edited"
"tohitu1",24,"No","3","Strongly agree","Neither nor","Weekly","Female","Yes","orange_3_grey.png","1","3",0.8883,11,"orange","edited"
"tohitu1",24,"No","1","Strongly agree","Neither nor","Weekly","Female","Yes","gul_1_grey.png","1","1",0.8497,12,"yellow","edited"
"tohitu1",24,"No","3","Strongly agree","Neither nor","Weekly","Female","Yes","orange_3_original.png","1","3",1.0871,13,"orange","original"
"tohitu1",24,"No","0","Strongly agree","Neither nor","Weekly","Female","Yes","gul_0_grey.png","1","0",0.782,14,"yellow","edited"
"tohitu1",24,"No","2","Strongly agree","Neither nor","Weekly","Female","Yes","orange_2_original.png","1","2",0.9298,15,"orange","original"
"yay",23,"No","0","Neither nor","Disagree","Every 3rd month","Male","No","gul_0_original.png","1","0",19.4336,0,"yellow","original"
"yay",23,"No","1","Neither nor","Disagree","Every 3rd month","Male","No","orange_1_original.png","1","1",3.0979,1,"orange","original"
"yay",23,"No","3","Neither nor","Disagree","Every 3rd month","Male","No","gul_3_grey.png","1","3",1.657,2,"yellow","edited"
"yay",23,"No","2","Neither nor","Disagree","Every 3rd month","Male","No","gul_2_original.png","1","2",3.3748,3,"yellow","original"
"yay",23,"No","0","Neither nor","Disagree","Every 3rd month","Male","No","gul_0_grey.png","1","0",2.1908,4,"yellow","edited"
"yay",23,"No","1","Neither nor","Disagree","Every 3rd month","Male","No","gul_1_original.png","1","1",3.5302,5,"yellow","original"
"yay",23,"No","0","Neither nor","Disagree","Every 3rd month","Male","No","orange_0_grey.png","1","0",1.8798,6,"orange","edited"
"yay",23,"No","3","Neither nor","Disagree","Every 3rd month","Male","No","gul_3_original.png","0","4",2.7335,7,"yellow","original"
"yay",23,"No","3","Neither nor","Disagree","Every 3rd month","Male","No","orange_3_grey.png","0","4",1.2332,8,"orange","edited"
"yay",23,"No","2","Neither nor","Disagree","Every 3rd month","Male","No","gul_2_grey.png","0","3",0.822,9,"yellow","edited"
"yay",23,"No","2","Neither nor","Disagree","Every 3rd month","Male","No","orange_2_original.png","0","3",2.2382,10,"orange","original"
"yay",23,"No","2","Neither nor","Disagree","Every 3rd month","Male","No","orange_2_grey.png","0","3",0.963,11,"orange","edited"
"yay",23,"No","1","Neither nor","Disagree","Every 3rd month","Male","No","orange_1_grey.png","0","2",1.0985,12,"orange","edited"
"yay",23,"No","1","Neither nor","Disagree","Every 3rd month","Male","No","gul_1_grey.png","0","2",0.8838,13,"yellow","edited"
"yay",23,"No","3","Neither nor","Disagree","Every 3rd month","Male","No","orange_3_original.png","0","4",1.48,14,"orange","original"
"yay",23,"No","0","Neither nor","Disagree","Every 3rd month","Male","No","orange_0_original.png","1","0",2.2185,15,"orange","original"
