"id","age","colorblind","correct_token_options","diff_remember","diff_understand","freq_game","gender","played_haven","token_original_resp.keys","token_edited_resp.keys","token_options","RT","trials_tokens.thisN","token_resp.corr","manipulation","token_color"
"251100",23,"No","m","Strongly disagree","Strongly disagree","Every 3rd month","Female","No","m",NA,"original_tokens_blues_m.png",3.8759,0,1,"original","blue"
"251100",23,"No","g","Strongly disagree","Strongly disagree","Every 3rd month","Female","No","g",NA,"original_tokens_greens_g.png",2.9278,1,1,"original","green"
"251100",23,"No","b","Strongly disagree","Strongly disagree","Every 3rd month","Female","No","b",NA,"original_tokens_blues_b.png",3.7779,2,1,"original","blue"
"251100",23,"No","d","Strongly disagree","Strongly disagree","Every 3rd month","Female","No","d",NA,"original_tokens_blues_d.png",2.1464,3,1,"original","blue"
"251100",23,"No","k","Strongly disagree","Strongly disagree","Every 3rd month","Female","No","k",NA,"original_tokens_blues_k.png",3.0746,4,1,"original","blue"
"251100",23,"No","e","Strongly disagree","Strongly disagree","Every 3rd month","Female","No","e",NA,"original_tokens_greens_e.png",3.1219,5,1,"original","green"
"251100",23,"No","h","Strongly disagree","Strongly disagree","Every 3rd month","Female","No","h",NA,"original_tokens_greens_h.png",2.7317,6,1,"original","green"
"251100",23,"No","n","Strongly disagree","Strongly disagree","Every 3rd month","Female","No","n",NA,"original_tokens_greens_n.png",2.5502,7,1,"original","green"
"251100",23,"No","o","Strongly disagree","Strongly disagree","Every 3rd month","Female","No","o",NA,"original_tokens_blues_o.png",4.8851,8,1,"original","blue"
"251100",23,"No","a","Strongly disagree","Strongly disagree","Every 3rd month","Female","No","a",NA,"original_tokens_greens_a.png",2.1255,9,1,"original","green"
"427569",28,"No","e","Strongly disagree","Disagree","Weekly","Male","No",NA,"e","edited_tokens_greens_e.png",2.9563,0,1,"edited","green"
"427569",28,"No","a","Strongly disagree","Disagree","Weekly","Male","No",NA,"a","edited_tokens_greens_a.png",2.8094,1,1,"edited","green"
"427569",28,"No","d","Strongly disagree","Disagree","Weekly","Male","No",NA,"d","edited_tokens_blues_d.png",2.2801,2,1,"edited","blue"
"427569",28,"No","g","Strongly disagree","Disagree","Weekly","Male","No",NA,"g","edited_tokens_greens_g.png",2.8282,3,1,"edited","green"
"427569",28,"No","h","Strongly disagree","Disagree","Weekly","Male","No",NA,"h","edited_tokens_greens_h.png",3.905,4,1,"edited","green"
"427569",28,"No","m","Strongly disagree","Disagree","Weekly","Male","No",NA,"m","edited_tokens_blues_m.png",3.4229,5,1,"edited","blue"
"427569",28,"No","b","Strongly disagree","Disagree","Weekly","Male","No",NA,"b","edited_tokens_blues_b.png",3.4678,6,1,"edited","blue"
"427569",28,"No","n","Strongly disagree","Disagree","Weekly","Male","No",NA,"n","edited_tokens_greens_n.png",2.4532,7,1,"edited","green"
"427569",28,"No","o","Strongly disagree","Disagree","Weekly","Male","No",NA,"o","edited_tokens_blues_o.png",5.4143,8,1,"edited","blue"
"427569",28,"No","k","Strongly disagree","Disagree","Weekly","Male","No",NA,"k","edited_tokens_blues_k.png",3.6367,9,1,"edited","blue"
"579998",26,"No","m","Disagree","Agree","Every 3rd month","Male","No",NA,"m","edited_tokens_blues_m.png",7.947,0,1,"edited","blue"
"579998",26,"No","o","Disagree","Agree","Every 3rd month","Male","No",NA,"o","edited_tokens_blues_o.png",4.7371,1,1,"edited","blue"
"579998",26,"No","e","Disagree","Agree","Every 3rd month","Male","No",NA,"e","edited_tokens_greens_e.png",5.2119,2,1,"edited","green"
"579998",26,"No","a","Disagree","Agree","Every 3rd month","Male","No",NA,"a","edited_tokens_greens_a.png",3.0318,3,1,"edited","green"
"579998",26,"No","k","Disagree","Agree","Every 3rd month","Male","No",NA,"k","edited_tokens_blues_k.png",2.3835,4,1,"edited","blue"
"579998",26,"No","n","Disagree","Agree","Every 3rd month","Male","No",NA,"n","edited_tokens_greens_n.png",2.9514,5,1,"edited","green"
"579998",26,"No","g","Disagree","Agree","Every 3rd month","Male","No",NA,"g","edited_tokens_greens_g.png",2.3076,6,1,"edited","green"
"579998",26,"No","b","Disagree","Agree","Every 3rd month","Male","No",NA,"b","edited_tokens_blues_b.png",2.4943,7,1,"edited","blue"
"579998",26,"No","h","Disagree","Agree","Every 3rd month","Male","No",NA,"h","edited_tokens_greens_h.png",7.8314,8,1,"edited","green"
"579998",26,"No","d","Disagree","Agree","Every 3rd month","Male","No",NA,"d","edited_tokens_blues_d.png",1.7892,9,1,"edited","blue"
"abcabc",25,"No","a","Disagree","Disagree","Semi-annually","Male","No",NA,"a","edited_tokens_greens_a.png",1.872,6,1,"edited","green"
"abcabc",25,"No","k","Disagree","Disagree","Semi-annually","Male","No",NA,"o","edited_tokens_blues_k.png",2.944,7,0,"edited","blue"
"abcabc",25,"No","b","Disagree","Disagree","Semi-annually","Male","No",NA,"b","edited_tokens_blues_b.png",7.777,8,1,"edited","blue"
"abcabc",25,"No","e","Disagree","Disagree","Semi-annually","Male","No",NA,"e","edited_tokens_greens_e.png",3.191,9,1,"edited","green"
"abcabc",25,"No","h","Disagree","Disagree","Semi-annually","Male","No",NA,"h","edited_tokens_greens_h.png",2.235,3,1,"edited","green"
"abcabc",25,"No","g","Disagree","Disagree","Semi-annually","Male","No",NA,"g","edited_tokens_greens_g.png",3.538,0,1,"edited","green"
"abcabc",25,"No","n","Disagree","Disagree","Semi-annually","Male","No",NA,"n","edited_tokens_greens_n.png",1.889,1,1,"edited","green"
"abcabc",25,"No","d","Disagree","Disagree","Semi-annually","Male","No",NA,"d","edited_tokens_blues_d.png",2.574,2,1,"edited","blue"
"abcabc",25,"No","m","Disagree","Disagree","Semi-annually","Male","No",NA,"m","edited_tokens_blues_m.png",2.109,4,1,"edited","blue"
"abcabc",25,"No","o","Disagree","Disagree","Semi-annually","Male","No",NA,"o","edited_tokens_blues_o.png",3.97,5,1,"edited","blue"
"au691988",28,"No","d","Disagree","Agree","Every 3rd month","Male","No",NA,"d","edited_tokens_blues_d.png",3.0169,0,1,"edited","blue"
"au691988",28,"No","m","Disagree","Agree","Every 3rd month","Male","No",NA,"m","edited_tokens_blues_m.png",2.3432,1,1,"edited","blue"
"au691988",28,"No","g","Disagree","Agree","Every 3rd month","Male","No",NA,"g","edited_tokens_greens_g.png",1.8587,2,1,"edited","green"
"au691988",28,"No","h","Disagree","Agree","Every 3rd month","Male","No",NA,"h","edited_tokens_greens_h.png",1.6005,3,1,"edited","green"
"au691988",28,"No","e","Disagree","Agree","Every 3rd month","Male","No",NA,"e","edited_tokens_greens_e.png",1.9422,4,1,"edited","green"
"au691988",28,"No","a","Disagree","Agree","Every 3rd month","Male","No",NA,"a","edited_tokens_greens_a.png",1.7193,5,1,"edited","green"
"au691988",28,"No","o","Disagree","Agree","Every 3rd month","Male","No",NA,"o","edited_tokens_blues_o.png",2.3454,6,1,"edited","blue"
"au691988",28,"No","k","Disagree","Agree","Every 3rd month","Male","No",NA,"k","edited_tokens_blues_k.png",3.0748,7,1,"edited","blue"
"au691988",28,"No","n","Disagree","Agree","Every 3rd month","Male","No",NA,"n","edited_tokens_greens_n.png",2.2017,8,1,"edited","green"
"au691988",28,"No","b","Disagree","Agree","Every 3rd month","Male","No",NA,"b","edited_tokens_blues_b.png",1.7897,9,1,"edited","blue"
"Ben24jada",56,"No","d","Neither nor","Disagree","Monthly","Female","No","d",NA,"original_tokens_blues_d.png",7.8724,0,1,"original","blue"
"Ben24jada",56,"No","a","Neither nor","Disagree","Monthly","Female","No","a",NA,"original_tokens_greens_a.png",10.1605,1,1,"original","green"
"Ben24jada",56,"No","h","Neither nor","Disagree","Monthly","Female","No","h",NA,"original_tokens_greens_h.png",6.4737,2,1,"original","green"
"Ben24jada",56,"No","n","Neither nor","Disagree","Monthly","Female","No","n",NA,"original_tokens_greens_n.png",4.7255,3,1,"original","green"
"Ben24jada",56,"No","o","Neither nor","Disagree","Monthly","Female","No","o",NA,"original_tokens_blues_o.png",6.7006,4,1,"original","blue"
"Ben24jada",56,"No","e","Neither nor","Disagree","Monthly","Female","No","e",NA,"original_tokens_greens_e.png",6.7148,5,1,"original","green"
"Ben24jada",56,"No","b","Neither nor","Disagree","Monthly","Female","No","b",NA,"original_tokens_blues_b.png",5.0079,6,1,"original","blue"
"Ben24jada",56,"No","m","Neither nor","Disagree","Monthly","Female","No","m",NA,"original_tokens_blues_m.png",4.235,7,1,"original","blue"
"Ben24jada",56,"No","k","Neither nor","Disagree","Monthly","Female","No","k",NA,"original_tokens_blues_k.png",7.1274,8,1,"original","blue"
"Ben24jada",56,"No","g","Neither nor","Disagree","Monthly","Female","No","g",NA,"original_tokens_greens_g.png",7.9548,9,1,"original","green"
"gyiu98",22,"No","n","Disagree","Disagree","Monthly","Female","No",NA,"n","edited_tokens_greens_n.png",5.112,0,1,"edited","green"
"gyiu98",22,"No","g","Disagree","Disagree","Monthly","Female","No",NA,"g","edited_tokens_greens_g.png",2.751,1,1,"edited","green"
"gyiu98",22,"No","m","Disagree","Disagree","Monthly","Female","No",NA,"m","edited_tokens_blues_m.png",3.589,2,1,"edited","blue"
"gyiu98",22,"No","h","Disagree","Disagree","Monthly","Female","No",NA,"h","edited_tokens_greens_h.png",2.413,3,1,"edited","green"
"gyiu98",22,"No","b","Disagree","Disagree","Monthly","Female","No",NA,"b","edited_tokens_blues_b.png",2.969,4,1,"edited","blue"
"gyiu98",22,"No","d","Disagree","Disagree","Monthly","Female","No",NA,"d","edited_tokens_blues_d.png",4.039,5,1,"edited","blue"
"gyiu98",22,"No","a","Disagree","Disagree","Monthly","Female","No",NA,"a","edited_tokens_greens_a.png",1.767,6,1,"edited","green"
"gyiu98",22,"No","o","Disagree","Disagree","Monthly","Female","No",NA,"o","edited_tokens_blues_o.png",3.785,7,1,"edited","blue"
"gyiu98",22,"No","k","Disagree","Disagree","Monthly","Female","No",NA,"k","edited_tokens_blues_k.png",3.188,8,1,"edited","blue"
"gyiu98",22,"No","e","Disagree","Disagree","Monthly","Female","No",NA,"e","edited_tokens_greens_e.png",2.468,9,1,"edited","green"
"K5gu78",23,"No","m","Neither nor","Neither nor","Semi-annually","Female","No",NA,"n","edited_tokens_blues_m.png",3.8011,1,0,"edited","blue"
"K5gu78",23,"No","b","Neither nor","Neither nor","Semi-annually","Female","No",NA,"b","edited_tokens_blues_b.png",2.5822,2,1,"edited","blue"
"K5gu78",23,"No","n","Neither nor","Neither nor","Semi-annually","Female","No",NA,"n","edited_tokens_greens_n.png",2.3843,3,1,"edited","green"
"K5gu78",23,"No","k","Neither nor","Neither nor","Semi-annually","Female","No",NA,"k","edited_tokens_blues_k.png",2.5994,4,1,"edited","blue"
"K5gu78",23,"No","g","Neither nor","Neither nor","Semi-annually","Female","No",NA,"g","edited_tokens_greens_g.png",1.9179,5,1,"edited","green"
"K5gu78",23,"No","e","Neither nor","Neither nor","Semi-annually","Female","No",NA,"e","edited_tokens_greens_e.png",2.4835,6,1,"edited","green"
"K5gu78",23,"No","a","Neither nor","Neither nor","Semi-annually","Female","No",NA,"a","edited_tokens_greens_a.png",2.3114,7,1,"edited","green"
"K5gu78",23,"No","o","Neither nor","Neither nor","Semi-annually","Female","No",NA,"o","edited_tokens_blues_o.png",3.0034,8,1,"edited","blue"
"K5gu78",23,"No","d","Neither nor","Neither nor","Semi-annually","Female","No",NA,"d","edited_tokens_blues_d.png",2.0821,9,1,"edited","blue"
"K5gu78",23,"No","h","Neither nor","Neither nor","Semi-annually","Female","No",NA,"h","edited_tokens_greens_h.png",2.7847,0,1,"edited","green"
"KleinOgAbel",24,"No","o","Disagree","Strongly disagree","Weekly","Male","Yes",NA,"o","edited_tokens_blues_o.png",2.383,0,1,"edited","blue"
"KleinOgAbel",24,"No","m","Disagree","Strongly disagree","Weekly","Male","Yes",NA,"m","edited_tokens_blues_m.png",2.138,1,1,"edited","blue"
"KleinOgAbel",24,"No","e","Disagree","Strongly disagree","Weekly","Male","Yes",NA,"e","edited_tokens_greens_e.png",2.2079,2,1,"edited","green"
"KleinOgAbel",24,"No","h","Disagree","Strongly disagree","Weekly","Male","Yes",NA,"h","edited_tokens_greens_h.png",3.0432,3,1,"edited","green"
"KleinOgAbel",24,"No","n","Disagree","Strongly disagree","Weekly","Male","Yes",NA,"n","edited_tokens_greens_n.png",2.1184,4,1,"edited","green"
"KleinOgAbel",24,"No","b","Disagree","Strongly disagree","Weekly","Male","Yes",NA,"b","edited_tokens_blues_b.png",5.1901,5,1,"edited","blue"
"KleinOgAbel",24,"No","k","Disagree","Strongly disagree","Weekly","Male","Yes",NA,"k","edited_tokens_blues_k.png",3.0086,6,1,"edited","blue"
"KleinOgAbel",24,"No","g","Disagree","Strongly disagree","Weekly","Male","Yes",NA,"g","edited_tokens_greens_g.png",1.6534,7,1,"edited","green"
"KleinOgAbel",24,"No","d","Disagree","Strongly disagree","Weekly","Male","Yes",NA,"d","edited_tokens_blues_d.png",2.2771,8,1,"edited","blue"
"KleinOgAbel",24,"No","a","Disagree","Strongly disagree","Weekly","Male","Yes",NA,"a","edited_tokens_greens_a.png",2.1217,9,1,"edited","green"
"M123",26,"No","g","Disagree","Disagree","Every 3rd month","Female","No",NA,"g","edited_tokens_greens_g.png",3.375,0,1,"edited","green"
"M123",26,"No","k","Disagree","Disagree","Every 3rd month","Female","No",NA,"k","edited_tokens_blues_k.png",2.186,8,1,"edited","blue"
"M123",26,"No","e","Disagree","Disagree","Every 3rd month","Female","No",NA,"e","edited_tokens_greens_e.png",2.881,9,1,"edited","green"
"M123",26,"No","o","Disagree","Disagree","Every 3rd month","Female","No",NA,"o","edited_tokens_blues_o.png",2.405,3,1,"edited","blue"
"M123",26,"No","n","Disagree","Disagree","Every 3rd month","Female","No",NA,"n","edited_tokens_greens_n.png",2.577,4,1,"edited","green"
"M123",26,"No","m","Disagree","Disagree","Every 3rd month","Female","No",NA,"m","edited_tokens_blues_m.png",3.723,1,1,"edited","blue"
"M123",26,"No","h","Disagree","Disagree","Every 3rd month","Female","No",NA,"h","edited_tokens_greens_h.png",2.384,2,1,"edited","green"
"M123",26,"No","a","Disagree","Disagree","Every 3rd month","Female","No",NA,"a","edited_tokens_greens_a.png",2.267,7,1,"edited","green"
"M123",26,"No","d","Disagree","Disagree","Every 3rd month","Female","No",NA,"d","edited_tokens_blues_d.png",1.856,5,1,"edited","blue"
"M123",26,"No","b","Disagree","Disagree","Every 3rd month","Female","No",NA,"b","edited_tokens_blues_b.png",4.46,6,1,"edited","blue"
"tohitu1",24,"No","e","Strongly agree","Neither nor","Weekly","Female","Yes","e",NA,"original_tokens_greens_e.png",5.7324,0,1,"original","green"
"tohitu1",24,"No","m","Strongly agree","Neither nor","Weekly","Female","Yes","m",NA,"original_tokens_blues_m.png",6.4342,1,1,"original","blue"
"tohitu1",24,"No","a","Strongly agree","Neither nor","Weekly","Female","Yes","a",NA,"original_tokens_greens_a.png",1.6629,2,1,"original","green"
"tohitu1",24,"No","o","Strongly agree","Neither nor","Weekly","Female","Yes","o",NA,"original_tokens_blues_o.png",3.0026,3,1,"original","blue"
"tohitu1",24,"No","n","Strongly agree","Neither nor","Weekly","Female","Yes","n",NA,"original_tokens_greens_n.png",1.8196,4,1,"original","green"
"tohitu1",24,"No","b","Strongly agree","Neither nor","Weekly","Female","Yes","b",NA,"original_tokens_blues_b.png",2.3837,5,1,"original","blue"
"tohitu1",24,"No","g","Strongly agree","Neither nor","Weekly","Female","Yes","g",NA,"original_tokens_greens_g.png",3.4492,6,1,"original","green"
"tohitu1",24,"No","d","Strongly agree","Neither nor","Weekly","Female","Yes","d",NA,"original_tokens_blues_d.png",6.8633,7,1,"original","blue"
"tohitu1",24,"No","h","Strongly agree","Neither nor","Weekly","Female","Yes","h",NA,"original_tokens_greens_h.png",3.5352,8,1,"original","green"
"tohitu1",24,"No","k","Strongly agree","Neither nor","Weekly","Female","Yes","k",NA,"original_tokens_blues_k.png",3.2324,9,1,"original","blue"
