"id","age","colorblind","correctTreenumber","diff_remember","diff_understand","freq_game","gender","played_photo","tree_options","tree_response.corr","tree_response.keys","RT","trials_tree.thisN","manipulation","color_trees_to_count"
"11123",24,"No","1","Agree","Neither nor","Monthly","Male","No","original_orange2.png","1","1",3.7417,0,"original","orange"
"11123",24,"No","3","Agree","Neither nor","Monthly","Male","No","original_gulpink1.png","1","3",3.0397,1,"original","yellow"
"11123",24,"No","3","Agree","Neither nor","Monthly","Male","No","edited_green1.png","1","3",4.35,2,"edited","green"
"11123",24,"No","4","Agree","Neither nor","Monthly","Male","No","edited_gulpink2.png","1","4",3.3843,3,"edited","pink"
"11123",24,"No","3","Agree","Neither nor","Monthly","Male","No","original_orange1.png","1","3",2.4841,4,"original","orange"
"11123",24,"No","4","Agree","Neither nor","Monthly","Male","No","original_blue2.png","1","4",1.7846,5,"original","blue"
"11123",24,"No","2","Agree","Neither nor","Monthly","Male","No","edited_green2.png","1","2",2.2208,6,"edited","green"
"11123",24,"No","2","Agree","Neither nor","Monthly","Male","No","original_green2.png","1","2",2.9425,7,"original","green"
"11123",24,"No","4","Agree","Neither nor","Monthly","Male","No","edited_blue2.png","1","4",2.3099,8,"edited","blue"
"11123",24,"No","3","Agree","Neither nor","Monthly","Male","No","edited_gulpink1.png","1","3",3.6273,9,"edited","pink"
"11123",24,"No","2","Agree","Neither nor","Monthly","Male","No","edited_blue1.png","1","2",1.7651,10,"edited","blue"
"11123",24,"No","2","Agree","Neither nor","Monthly","Male","No","original_blue1.png","1","2",1.3463,11,"original","blue"
"11123",24,"No","3","Agree","Neither nor","Monthly","Male","No","original_green1.png","1","3",3.5944,12,"original","green"
"11123",24,"No","3","Agree","Neither nor","Monthly","Male","No","edited_orange1.png","1","3",3.1211,13,"edited","orange"
"11123",24,"No","4","Agree","Neither nor","Monthly","Male","No","original_gulpink2.png","1","4",3.6642,14,"original","yellow"
"11123",24,"No","1","Agree","Neither nor","Monthly","Male","No","edited_orange2.png","0","3",3.7865,15,"edited","orange"
"251100",23,"No","3","Strongly disagree","Strongly disagree","Every 3rd month","Female","No","edited_green1.png","1","3",2.7775,0,"edited","green"
"251100",23,"No","3","Strongly disagree","Strongly disagree","Every 3rd month","Female","No","original_green1.png","1","3",2.5567,1,"original","green"
"251100",23,"No","4","Strongly disagree","Strongly disagree","Every 3rd month","Female","No","original_gulpink2.png","1","4",2.9492,2,"original","yellow"
"251100",23,"No","1","Strongly disagree","Strongly disagree","Every 3rd month","Female","No","original_orange2.png","1","1",2.4233,3,"original","orange"
"251100",23,"No","3","Strongly disagree","Strongly disagree","Every 3rd month","Female","No","original_orange1.png","0","2",2.1814,4,"original","orange"
"251100",23,"No","2","Strongly disagree","Strongly disagree","Every 3rd month","Female","No","edited_green2.png","1","2",2.5841,5,"edited","green"
"251100",23,"No","1","Strongly disagree","Strongly disagree","Every 3rd month","Female","No","edited_orange2.png","0","2",2.1819,6,"edited","orange"
"251100",23,"No","4","Strongly disagree","Strongly disagree","Every 3rd month","Female","No","edited_gulpink2.png","1","4",2.0367,7,"edited","pink"
"251100",23,"No","4","Strongly disagree","Strongly disagree","Every 3rd month","Female","No","original_blue2.png","1","4",2.1622,8,"original","blue"
"251100",23,"No","2","Strongly disagree","Strongly disagree","Every 3rd month","Female","No","original_green2.png","1","2",2.6206,9,"original","green"
"251100",23,"No","3","Strongly disagree","Strongly disagree","Every 3rd month","Female","No","edited_gulpink1.png","1","3",2.0526,10,"edited","pink"
"251100",23,"No","3","Strongly disagree","Strongly disagree","Every 3rd month","Female","No","edited_orange1.png","1","3",2.5424,11,"edited","orange"
"251100",23,"No","4","Strongly disagree","Strongly disagree","Every 3rd month","Female","No","edited_blue2.png","1","4",2.042,12,"edited","blue"
"251100",23,"No","3","Strongly disagree","Strongly disagree","Every 3rd month","Female","No","original_gulpink1.png","1","3",2.5977,13,"original","yellow"
"251100",23,"No","2","Strongly disagree","Strongly disagree","Every 3rd month","Female","No","original_blue1.png","1","2",2.8097,14,"original","blue"
"251100",23,"No","2","Strongly disagree","Strongly disagree","Every 3rd month","Female","No","edited_blue1.png","1","2",1.7579,15,"edited","blue"
"3FFG54E",23,"No","2","Neither nor","Neither nor","Rarely","Female","No","original_green2.png","1","2",5.848,0,"original","green"
"3FFG54E",23,"No","4","Neither nor","Neither nor","Rarely","Female","No","original_gulpink2.png","1","4",7.489,1,"original","yellow"
"3FFG54E",23,"No","2","Neither nor","Neither nor","Rarely","Female","No","edited_blue1.png","1","2",3.269,2,"edited","blue"
"3FFG54E",23,"No","1","Neither nor","Neither nor","Rarely","Female","No","original_orange2.png","1","1",2.502,3,"original","orange"
"3FFG54E",23,"No","3","Neither nor","Neither nor","Rarely","Female","No","original_green1.png","1","3",5.627,4,"original","green"
"3FFG54E",23,"No","3","Neither nor","Neither nor","Rarely","Female","No","edited_gulpink1.png","1","3",5.373,5,"edited","pink"
"3FFG54E",23,"No","3","Neither nor","Neither nor","Rarely","Female","No","edited_green1.png","1","3",4.347,6,"edited","green"
"3FFG54E",23,"No","3","Neither nor","Neither nor","Rarely","Female","No","original_gulpink1.png","1","3",3.586,7,"original","yellow"
"3FFG54E",23,"No","4","Neither nor","Neither nor","Rarely","Female","No","edited_gulpink2.png","1","4",2.866,8,"edited","pink"
"3FFG54E",23,"No","3","Neither nor","Neither nor","Rarely","Female","No","original_orange1.png","1","3",11.173,9,"original","orange"
"3FFG54E",23,"No","4","Neither nor","Neither nor","Rarely","Female","No","edited_blue2.png","1","4",4.342,10,"edited","blue"
"3FFG54E",23,"No","1","Neither nor","Neither nor","Rarely","Female","No","edited_orange2.png","0","3",3.571,11,"edited","orange"
"3FFG54E",23,"No","2","Neither nor","Neither nor","Rarely","Female","No","original_blue1.png","1","2",3.217,12,"original","blue"
"3FFG54E",23,"No","3","Neither nor","Neither nor","Rarely","Female","No","edited_orange1.png","1","3",3.506,13,"edited","orange"
"3FFG54E",23,"No","2","Neither nor","Neither nor","Rarely","Female","No","edited_green2.png","1","2",3.592,14,"edited","green"
"3FFG54E",23,"No","4","Neither nor","Neither nor","Rarely","Female","No","original_blue2.png","1","4",3.988,15,"original","blue"
"427569",28,"No","2","Strongly disagree","Disagree","Weekly","Male","No","edited_green2.png","1","2",2.8181,0,"edited","green"
"427569",28,"No","2","Strongly disagree","Disagree","Weekly","Male","No","edited_blue1.png","1","2",3.5073,1,"edited","blue"
"427569",28,"No","3","Strongly disagree","Disagree","Weekly","Male","No","original_gulpink1.png","0","4",1.7535,2,"original","yellow"
"427569",28,"No","4","Strongly disagree","Disagree","Weekly","Male","No","edited_gulpink2.png","1","4",4.1065,3,"edited","pink"
"427569",28,"No","3","Strongly disagree","Disagree","Weekly","Male","No","original_green1.png","1","3",3.0981,4,"original","green"
"427569",28,"No","3","Strongly disagree","Disagree","Weekly","Male","No","original_orange1.png","0","2",1.7595,5,"original","orange"
"427569",28,"No","1","Strongly disagree","Disagree","Weekly","Male","No","edited_orange2.png","0","3",3.8418,6,"edited","orange"
"427569",28,"No","2","Strongly disagree","Disagree","Weekly","Male","No","original_blue1.png","1","2",2.6777,7,"original","blue"
"427569",28,"No","4","Strongly disagree","Disagree","Weekly","Male","No","original_blue2.png","1","4",2.8768,8,"original","blue"
"427569",28,"No","1","Strongly disagree","Disagree","Weekly","Male","No","original_orange2.png","1","1",0.7245,9,"original","orange"
"427569",28,"No","4","Strongly disagree","Disagree","Weekly","Male","No","original_gulpink2.png","1","4",1.3025,10,"original","yellow"
"427569",28,"No","3","Strongly disagree","Disagree","Weekly","Male","No","edited_green1.png","1","3",3.9349,11,"edited","green"
"427569",28,"No","3","Strongly disagree","Disagree","Weekly","Male","No","edited_orange1.png","1","3",1.4528,12,"edited","orange"
"427569",28,"No","4","Strongly disagree","Disagree","Weekly","Male","No","edited_blue2.png","1","4",3.834,13,"edited","blue"
"427569",28,"No","2","Strongly disagree","Disagree","Weekly","Male","No","original_green2.png","1","2",2.5042,14,"original","green"
"427569",28,"No","3","Strongly disagree","Disagree","Weekly","Male","No","edited_gulpink1.png","1","3",1.9295,15,"edited","pink"
"42uniqueohyesiamunique42",27,"No","3","Neither nor","Disagree","Monthly","Female","No","original_green1.png","1","3",9.7235,0,"original","green"
"42uniqueohyesiamunique42",27,"No","3","Neither nor","Disagree","Monthly","Female","No","original_gulpink1.png","1","3",5.7821,1,"original","yellow"
"42uniqueohyesiamunique42",27,"No","3","Neither nor","Disagree","Monthly","Female","No","edited_gulpink1.png","1","3",3.1274,2,"edited","pink"
"42uniqueohyesiamunique42",27,"No","2","Neither nor","Disagree","Monthly","Female","No","original_blue1.png","1","2",3.959,3,"original","blue"
"42uniqueohyesiamunique42",27,"No","3","Neither nor","Disagree","Monthly","Female","No","edited_orange1.png","1","3",3.8389,4,"edited","orange"
"42uniqueohyesiamunique42",27,"No","3","Neither nor","Disagree","Monthly","Female","No","original_orange1.png","1","3",2.8115,5,"original","orange"
"42uniqueohyesiamunique42",27,"No","4","Neither nor","Disagree","Monthly","Female","No","edited_blue2.png","1","4",3.4791,6,"edited","blue"
"42uniqueohyesiamunique42",27,"No","1","Neither nor","Disagree","Monthly","Female","No","edited_orange2.png","0","3",2.86,7,"edited","orange"
"42uniqueohyesiamunique42",27,"No","2","Neither nor","Disagree","Monthly","Female","No","edited_blue1.png","1","2",1.8729,8,"edited","blue"
"42uniqueohyesiamunique42",27,"No","1","Neither nor","Disagree","Monthly","Female","No","original_orange2.png","1","1",2.5494,9,"original","orange"
"42uniqueohyesiamunique42",27,"No","4","Neither nor","Disagree","Monthly","Female","No","edited_gulpink2.png","1","4",3.4049,10,"edited","pink"
"42uniqueohyesiamunique42",27,"No","4","Neither nor","Disagree","Monthly","Female","No","original_blue2.png","1","4",2.5651,11,"original","blue"
"42uniqueohyesiamunique42",27,"No","3","Neither nor","Disagree","Monthly","Female","No","edited_green1.png","1","3",3.625,12,"edited","green"
"42uniqueohyesiamunique42",27,"No","4","Neither nor","Disagree","Monthly","Female","No","original_gulpink2.png","1","4",2.6462,13,"original","yellow"
"42uniqueohyesiamunique42",27,"No","2","Neither nor","Disagree","Monthly","Female","No","original_green2.png","1","2",2.3888,14,"original","green"
"42uniqueohyesiamunique42",27,"No","2","Neither nor","Disagree","Monthly","Female","No","edited_green2.png","1","2",2.3531,15,"edited","green"
"579998",26,"No","4","Disagree","Agree","Every 3rd month","Male","No","edited_blue2.png","1","4",4.3043,0,"edited","blue"
"579998",26,"No","1","Disagree","Agree","Every 3rd month","Male","No","original_orange2.png","1","1",1.4475,1,"original","orange"
"579998",26,"No","1","Disagree","Agree","Every 3rd month","Male","No","edited_orange2.png","0","3",2.0283,2,"edited","orange"
"579998",26,"No","3","Disagree","Agree","Every 3rd month","Male","No","original_gulpink1.png","0","4",1.7466,3,"original","yellow"
"579998",26,"No","2","Disagree","Agree","Every 3rd month","Male","No","original_blue1.png","1","2",5.4,4,"original","blue"
"579998",26,"No","3","Disagree","Agree","Every 3rd month","Male","No","edited_gulpink1.png","1","3",3.7022,5,"edited","pink"
"579998",26,"No","4","Disagree","Agree","Every 3rd month","Male","No","edited_gulpink2.png","1","4",1.2446,6,"edited","pink"
"579998",26,"No","4","Disagree","Agree","Every 3rd month","Male","No","original_blue2.png","1","4",2.8763,7,"original","blue"
"579998",26,"No","3","Disagree","Agree","Every 3rd month","Male","No","edited_green1.png","1","3",2.6736,8,"edited","green"
"579998",26,"No","4","Disagree","Agree","Every 3rd month","Male","No","original_gulpink2.png","1","4",4.2906,9,"original","yellow"
"579998",26,"No","2","Disagree","Agree","Every 3rd month","Male","No","edited_green2.png","1","2",2.1413,10,"edited","green"
"579998",26,"No","2","Disagree","Agree","Every 3rd month","Male","No","original_green2.png","1","2",1.9111,11,"original","green"
"579998",26,"No","2","Disagree","Agree","Every 3rd month","Male","No","edited_blue1.png","1","2",3.193,12,"edited","blue"
"579998",26,"No","3","Disagree","Agree","Every 3rd month","Male","No","original_green1.png","1","3",3.0588,13,"original","green"
"579998",26,"No","3","Disagree","Agree","Every 3rd month","Male","No","original_orange1.png","1","3",2.3305,14,"original","orange"
"579998",26,"No","3","Disagree","Agree","Every 3rd month","Male","No","edited_orange1.png","1","3",2.084,15,"edited","orange"
"abcabc",25,"No","4","Disagree","Disagree","Semi-annually","Male","No","original_blue2.png","1","4",3.612,0,"original","blue"
"abcabc",25,"No","3","Disagree","Disagree","Semi-annually","Male","No","edited_green1.png","1","3",3.015,1,"edited","green"
"abcabc",25,"No","1","Disagree","Disagree","Semi-annually","Male","No","edited_orange2.png","0","3",2.628,2,"edited","orange"
"abcabc",25,"No","2","Disagree","Disagree","Semi-annually","Male","No","original_blue1.png","1","2",4.47,3,"original","blue"
"abcabc",25,"No","2","Disagree","Disagree","Semi-annually","Male","No","edited_blue1.png","1","2",1.633,4,"edited","blue"
"abcabc",25,"No","2","Disagree","Disagree","Semi-annually","Male","No","edited_green2.png","1","2",2.009,5,"edited","green"
"abcabc",25,"No","3","Disagree","Disagree","Semi-annually","Male","No","original_gulpink1.png","1","3",3.156,6,"original","yellow"
"abcabc",25,"No","3","Disagree","Disagree","Semi-annually","Male","No","original_orange1.png","0","2",1.896,7,"original","orange"
"abcabc",25,"No","3","Disagree","Disagree","Semi-annually","Male","No","edited_orange1.png","0","2",1.663,8,"edited","orange"
"abcabc",25,"No","4","Disagree","Disagree","Semi-annually","Male","No","edited_gulpink2.png","1","4",4.066,9,"edited","pink"
"abcabc",25,"No","1","Disagree","Disagree","Semi-annually","Male","No","original_orange2.png","1","1",2.482,10,"original","orange"
"abcabc",25,"No","3","Disagree","Disagree","Semi-annually","Male","No","edited_gulpink1.png","1","3",2.361,11,"edited","pink"
"abcabc",25,"No","4","Disagree","Disagree","Semi-annually","Male","No","edited_blue2.png","1","4",2.417,12,"edited","blue"
"abcabc",25,"No","3","Disagree","Disagree","Semi-annually","Male","No","original_green1.png","1","3",2.628,13,"original","green"
"abcabc",25,"No","2","Disagree","Disagree","Semi-annually","Male","No","original_green2.png","1","2",1.944,14,"original","green"
"abcabc",25,"No","4","Disagree","Disagree","Semi-annually","Male","No","original_gulpink2.png","1","4",2.846,15,"original","yellow"
"asdvknaæksjndvæjn",26,"No","3","Agree","Disagree","Weekly","Male","No","edited_gulpink1.png","1","3",6.376,0,"edited","pink"
"asdvknaæksjndvæjn",26,"No","1","Agree","Disagree","Weekly","Male","No","edited_orange2.png","0","2",2.8294,1,"edited","orange"
"asdvknaæksjndvæjn",26,"No","2","Agree","Disagree","Weekly","Male","No","edited_green2.png","1","2",3.4776,2,"edited","green"
"asdvknaæksjndvæjn",26,"No","2","Agree","Disagree","Weekly","Male","No","original_blue1.png","1","2",2.7412,3,"original","blue"
"asdvknaæksjndvæjn",26,"No","3","Agree","Disagree","Weekly","Male","No","original_green1.png","1","3",3.4748,4,"original","green"
"asdvknaæksjndvæjn",26,"No","3","Agree","Disagree","Weekly","Male","No","edited_green1.png","1","3",4.27,5,"edited","green"
"asdvknaæksjndvæjn",26,"No","3","Agree","Disagree","Weekly","Male","No","original_orange1.png","1","3",4.7641,6,"original","orange"
"asdvknaæksjndvæjn",26,"No","2","Agree","Disagree","Weekly","Male","No","original_green2.png","1","2",3.033,7,"original","green"
"asdvknaæksjndvæjn",26,"No","4","Agree","Disagree","Weekly","Male","No","original_blue2.png","1","4",4.8313,8,"original","blue"
"asdvknaæksjndvæjn",26,"No","4","Agree","Disagree","Weekly","Male","No","original_gulpink2.png","1","4",4.3575,9,"original","yellow"
"asdvknaæksjndvæjn",26,"No","3","Agree","Disagree","Weekly","Male","No","original_gulpink1.png","1","3",2.0175,10,"original","yellow"
"asdvknaæksjndvæjn",26,"No","2","Agree","Disagree","Weekly","Male","No","edited_blue1.png","1","2",2.9743,11,"edited","blue"
"asdvknaæksjndvæjn",26,"No","4","Agree","Disagree","Weekly","Male","No","edited_gulpink2.png","1","4",1.579,12,"edited","pink"
"asdvknaæksjndvæjn",26,"No","4","Agree","Disagree","Weekly","Male","No","edited_blue2.png","1","4",3.6528,13,"edited","blue"
"asdvknaæksjndvæjn",26,"No","3","Agree","Disagree","Weekly","Male","No","edited_orange1.png","1","3",2.6852,14,"edited","orange"
"asdvknaæksjndvæjn",26,"No","1","Agree","Disagree","Weekly","Male","No","original_orange2.png","1","1",2.3815,15,"original","orange"
"au691988",28,"No","4","Disagree","Agree","Every 3rd month","Male","No","original_gulpink2.png","0","5",9.7134,0,"original","yellow"
"au691988",28,"No","4","Disagree","Agree","Every 3rd month","Male","No","original_blue2.png","1","4",2.862,1,"original","blue"
"au691988",28,"No","1","Disagree","Agree","Every 3rd month","Male","No","edited_orange2.png","0","3",3.4452,2,"edited","orange"
"au691988",28,"No","2","Disagree","Agree","Every 3rd month","Male","No","edited_green2.png","1","2",2.2338,3,"edited","green"
"au691988",28,"No","3","Disagree","Agree","Every 3rd month","Male","No","edited_green1.png","1","3",1.7678,4,"edited","green"
"au691988",28,"No","4","Disagree","Agree","Every 3rd month","Male","No","edited_blue2.png","1","4",2.7786,5,"edited","blue"
"au691988",28,"No","2","Disagree","Agree","Every 3rd month","Male","No","original_blue1.png","1","2",1.3802,6,"original","blue"
"au691988",28,"No","2","Disagree","Agree","Every 3rd month","Male","No","original_green2.png","0","6",4.3784,7,"original","green"
"au691988",28,"No","3","Disagree","Agree","Every 3rd month","Male","No","original_orange1.png","1","3",1.8157,8,"original","orange"
"au691988",28,"No","4","Disagree","Agree","Every 3rd month","Male","No","edited_gulpink2.png","1","4",2.9662,9,"edited","pink"
"au691988",28,"No","3","Disagree","Agree","Every 3rd month","Male","No","edited_gulpink1.png","1","3",1.6061,10,"edited","pink"
"au691988",28,"No","3","Disagree","Agree","Every 3rd month","Male","No","original_gulpink1.png","1","3",1.8134,11,"original","yellow"
"au691988",28,"No","3","Disagree","Agree","Every 3rd month","Male","No","original_green1.png","1","3",3.0284,12,"original","green"
"au691988",28,"No","2","Disagree","Agree","Every 3rd month","Male","No","edited_blue1.png","1","2",2.0345,13,"edited","blue"
"au691988",28,"No","3","Disagree","Agree","Every 3rd month","Male","No","edited_orange1.png","1","3",1.5359,14,"edited","orange"
"au691988",28,"No","1","Disagree","Agree","Every 3rd month","Male","No","original_orange2.png","1","1",2.3373,15,"original","orange"
"Ben24jada",56,"No","2","Neither nor","Disagree","Monthly","Female","No","original_blue1.png","1","2",14.1332,0,"original","blue"
"Ben24jada",56,"No","4","Neither nor","Disagree","Monthly","Female","No","original_gulpink2.png","1","4",6.2845,1,"original","yellow"
"Ben24jada",56,"No","3","Neither nor","Disagree","Monthly","Female","No","edited_gulpink1.png","1","3",5.6155,2,"edited","pink"
"Ben24jada",56,"No","2","Neither nor","Disagree","Monthly","Female","No","original_green2.png","1","2",10.7716,3,"original","green"
"Ben24jada",56,"No","1","Neither nor","Disagree","Monthly","Female","No","original_orange2.png","1","1",8.1839,4,"original","orange"
"Ben24jada",56,"No","2","Neither nor","Disagree","Monthly","Female","No","edited_blue1.png","1","2",8.4112,5,"edited","blue"
"Ben24jada",56,"No","3","Neither nor","Disagree","Monthly","Female","No","original_orange1.png","1","3",10.3533,6,"original","orange"
"Ben24jada",56,"No","4","Neither nor","Disagree","Monthly","Female","No","edited_gulpink2.png","1","4",4.2556,7,"edited","pink"
"Ben24jada",56,"No","3","Neither nor","Disagree","Monthly","Female","No","edited_green1.png","1","3",7.0128,8,"edited","green"
"Ben24jada",56,"No","3","Neither nor","Disagree","Monthly","Female","No","edited_orange1.png","1","3",6.6631,9,"edited","orange"
"Ben24jada",56,"No","4","Neither nor","Disagree","Monthly","Female","No","original_blue2.png","1","4",9.5781,10,"original","blue"
"Ben24jada",56,"No","4","Neither nor","Disagree","Monthly","Female","No","edited_blue2.png","1","4",10.2716,11,"edited","blue"
"Ben24jada",56,"No","3","Neither nor","Disagree","Monthly","Female","No","original_green1.png","1","3",13.7985,12,"original","green"
"Ben24jada",56,"No","2","Neither nor","Disagree","Monthly","Female","No","edited_green2.png","1","2",7.391,13,"edited","green"
"Ben24jada",56,"No","1","Neither nor","Disagree","Monthly","Female","No","edited_orange2.png","0","3",8.0584,14,"edited","orange"
"Ben24jada",56,"No","3","Neither nor","Disagree","Monthly","Female","No","original_gulpink1.png","1","3",6.8808,15,"original","yellow"
"brætspil33445",19,"No","3","Agree","Agree","Every 3rd month","Female","No","original_orange1.png","1","3",6.3329,0,"original","orange"
"brætspil33445",19,"No","1","Agree","Agree","Every 3rd month","Female","No","edited_orange2.png","0","3",6.432,1,"edited","orange"
"brætspil33445",19,"No","3","Agree","Agree","Every 3rd month","Female","No","edited_orange1.png","1","3",4.2976,2,"edited","orange"
"brætspil33445",19,"No","2","Agree","Agree","Every 3rd month","Female","No","original_green2.png","0","1",2.3974,3,"original","green"
"brætspil33445",19,"No","2","Agree","Agree","Every 3rd month","Female","No","edited_blue1.png","1","2",2.2761,4,"edited","blue"
"brætspil33445",19,"No","3","Agree","Agree","Every 3rd month","Female","No","original_gulpink1.png","1","3",3.4261,5,"original","yellow"
"brætspil33445",19,"No","3","Agree","Agree","Every 3rd month","Female","No","original_green1.png","1","3",3.2392,6,"original","green"
"brætspil33445",19,"No","2","Agree","Agree","Every 3rd month","Female","No","original_blue1.png","1","2",2.4352,7,"original","blue"
"brætspil33445",19,"No","4","Agree","Agree","Every 3rd month","Female","No","edited_blue2.png","1","4",2.6531,8,"edited","blue"
"brætspil33445",19,"No","3","Agree","Agree","Every 3rd month","Female","No","edited_green1.png","1","3",3.1522,9,"edited","green"
"brætspil33445",19,"No","1","Agree","Agree","Every 3rd month","Female","No","original_orange2.png","1","1",2.1108,10,"original","orange"
"brætspil33445",19,"No","4","Agree","Agree","Every 3rd month","Female","No","original_gulpink2.png","1","4",3.9393,11,"original","yellow"
"brætspil33445",19,"No","3","Agree","Agree","Every 3rd month","Female","No","edited_gulpink1.png","1","3",1.9818,12,"edited","pink"
"brætspil33445",19,"No","2","Agree","Agree","Every 3rd month","Female","No","edited_green2.png","1","2",2.909,13,"edited","green"
"brætspil33445",19,"No","4","Agree","Agree","Every 3rd month","Female","No","original_blue2.png","1","4",2.6356,14,"original","blue"
"brætspil33445",19,"No","4","Agree","Agree","Every 3rd month","Female","No","edited_gulpink2.png","1","4",3.2384,15,"edited","pink"
"DBF47",24,"No","2","Disagree","Disagree","Every 3rd month","Male","No","edited_green2.png","1","2",2.4877,0,"edited","green"
"DBF47",24,"No","4","Disagree","Disagree","Every 3rd month","Male","No","original_gulpink2.png","1","4",2.614,1,"original","yellow"
"DBF47",24,"No","1","Disagree","Disagree","Every 3rd month","Male","No","original_orange2.png","1","1",2.6322,2,"original","orange"
"DBF47",24,"No","4","Disagree","Disagree","Every 3rd month","Male","No","edited_gulpink2.png","1","4",2.3431,3,"edited","pink"
"DBF47",24,"No","4","Disagree","Disagree","Every 3rd month","Male","No","edited_blue2.png","1","4",1.9742,4,"edited","blue"
"DBF47",24,"No","3","Disagree","Disagree","Every 3rd month","Male","No","original_gulpink1.png","1","3",2.4238,5,"original","yellow"
"DBF47",24,"No","2","Disagree","Disagree","Every 3rd month","Male","No","original_green2.png","1","2",2.5662,6,"original","green"
"DBF47",24,"No","3","Disagree","Disagree","Every 3rd month","Male","No","edited_green1.png","1","3",2.1356,7,"edited","green"
"DBF47",24,"No","3","Disagree","Disagree","Every 3rd month","Male","No","original_orange1.png","0","2",3.3037,8,"original","orange"
"DBF47",24,"No","1","Disagree","Disagree","Every 3rd month","Male","No","edited_orange2.png","0","2",3.258,9,"edited","orange"
"DBF47",24,"No","4","Disagree","Disagree","Every 3rd month","Male","No","original_blue2.png","1","4",1.9924,10,"original","blue"
"DBF47",24,"No","3","Disagree","Disagree","Every 3rd month","Male","No","edited_gulpink1.png","1","3",1.7843,11,"edited","pink"
"DBF47",24,"No","2","Disagree","Disagree","Every 3rd month","Male","No","edited_blue1.png","1","2",1.6423,12,"edited","blue"
"DBF47",24,"No","3","Disagree","Disagree","Every 3rd month","Male","No","edited_orange1.png","0","2",2.2458,13,"edited","orange"
"DBF47",24,"No","2","Disagree","Disagree","Every 3rd month","Male","No","original_blue1.png","1","2",1.76,14,"original","blue"
"DBF47",24,"No","3","Disagree","Disagree","Every 3rd month","Male","No","original_green1.png","1","3",4.6159,15,"original","green"
"eae24",24,"No","2","Agree","Agree","Monthly","Female","No","original_green2.png","1","2",7.6477,0,"original","green"
"eae24",24,"No","2","Agree","Agree","Monthly","Female","No","original_blue1.png","1","2",4.3317,1,"original","blue"
"eae24",24,"No","1","Agree","Agree","Monthly","Female","No","edited_orange2.png","1","1",3.2807,2,"edited","orange"
"eae24",24,"No","3","Agree","Agree","Monthly","Female","No","original_gulpink1.png","1","3",4.4723,3,"original","yellow"
"eae24",24,"No","3","Agree","Agree","Monthly","Female","No","edited_green1.png","1","3",3.2915,4,"edited","green"
"eae24",24,"No","1","Agree","Agree","Monthly","Female","No","original_orange2.png","1","1",2.9581,5,"original","orange"
"eae24",24,"No","4","Agree","Agree","Monthly","Female","No","original_blue2.png","1","4",3.4389,6,"original","blue"
"eae24",24,"No","3","Agree","Agree","Monthly","Female","No","original_green1.png","0","2",3.2383,7,"original","green"
"eae24",24,"No","3","Agree","Agree","Monthly","Female","No","original_orange1.png","0","2",2.4236,8,"original","orange"
"eae24",24,"No","3","Agree","Agree","Monthly","Female","No","edited_orange1.png","0","2",3.3288,9,"edited","orange"
"eae24",24,"No","2","Agree","Agree","Monthly","Female","No","edited_green2.png","1","2",2.6083,10,"edited","green"
"eae24",24,"No","4","Agree","Agree","Monthly","Female","No","edited_blue2.png","1","4",4.0324,11,"edited","blue"
"eae24",24,"No","3","Agree","Agree","Monthly","Female","No","edited_gulpink1.png","0","2",2.5815,12,"edited","pink"
"eae24",24,"No","4","Agree","Agree","Monthly","Female","No","edited_gulpink2.png","0","5",6.8158,13,"edited","pink"
"eae24",24,"No","2","Agree","Agree","Monthly","Female","No","edited_blue1.png","1","2",2.3342,14,"edited","blue"
"eae24",24,"No","4","Agree","Agree","Monthly","Female","No","original_gulpink2.png","1","4",5.1291,15,"original","yellow"
"erew326adw",26,"No","3","Neither nor","Disagree","Monthly","Female","No","edited_gulpink1.png","1","3",4.143,0,"edited","pink"
"erew326adw",26,"No","2","Neither nor","Disagree","Monthly","Female","No","original_green2.png","1","2",4.065,1,"original","green"
"erew326adw",26,"No","3","Neither nor","Disagree","Monthly","Female","No","original_orange1.png","1","3",3.29,2,"original","orange"
"erew326adw",26,"No","4","Neither nor","Disagree","Monthly","Female","No","edited_blue2.png","1","4",3.038,3,"edited","blue"
"erew326adw",26,"No","4","Neither nor","Disagree","Monthly","Female","No","edited_gulpink2.png","1","4",3.023,4,"edited","pink"
"erew326adw",26,"No","1","Neither nor","Disagree","Monthly","Female","No","original_orange2.png","1","1",2.386,5,"original","orange"
"erew326adw",26,"No","3","Neither nor","Disagree","Monthly","Female","No","edited_orange1.png","1","3",3.153,6,"edited","orange"
"erew326adw",26,"No","2","Neither nor","Disagree","Monthly","Female","No","edited_green2.png","0","3",2.562,7,"edited","green"
"erew326adw",26,"No","2","Neither nor","Disagree","Monthly","Female","No","original_blue1.png","1","2",2.558,8,"original","blue"
"erew326adw",26,"No","3","Neither nor","Disagree","Monthly","Female","No","original_gulpink1.png","1","3",3.766,9,"original","yellow"
"erew326adw",26,"No","1","Neither nor","Disagree","Monthly","Female","No","edited_orange2.png","0","3",0.056,10,"edited","orange"
"erew326adw",26,"No","2","Neither nor","Disagree","Monthly","Female","No","edited_blue1.png","1","2",2.174,11,"edited","blue"
"erew326adw",26,"No","3","Neither nor","Disagree","Monthly","Female","No","original_green1.png","1","3",2.6,12,"original","green"
"erew326adw",26,"No","4","Neither nor","Disagree","Monthly","Female","No","original_gulpink2.png","1","4",2.538,13,"original","yellow"
"erew326adw",26,"No","4","Neither nor","Disagree","Monthly","Female","No","original_blue2.png","1","4",2.388,14,"original","blue"
"erew326adw",26,"No","3","Neither nor","Disagree","Monthly","Female","No","edited_green1.png","1","3",2.67,15,"edited","green"
"gyiu98",22,"No","2","Disagree","Disagree","Monthly","Female","No","original_green2.png","1","2",3.153,0,"original","green"
"gyiu98",22,"No","2","Disagree","Disagree","Monthly","Female","No","edited_blue1.png","1","2",2.439,1,"edited","blue"
"gyiu98",22,"No","3","Disagree","Disagree","Monthly","Female","No","edited_orange1.png","1","3",3.059,2,"edited","orange"
"gyiu98",22,"No","2","Disagree","Disagree","Monthly","Female","No","original_blue1.png","1","2",1.961,3,"original","blue"
"gyiu98",22,"No","4","Disagree","Disagree","Monthly","Female","No","edited_gulpink2.png","1","4",2.707,4,"edited","pink"
"gyiu98",22,"No","1","Disagree","Disagree","Monthly","Female","No","original_orange2.png","1","1",2.629,5,"original","orange"
"gyiu98",22,"No","2","Disagree","Disagree","Monthly","Female","No","edited_green2.png","1","2",2.587,6,"edited","green"
"gyiu98",22,"No","3","Disagree","Disagree","Monthly","Female","No","original_green1.png","1","3",2.664,7,"original","green"
"gyiu98",22,"No","3","Disagree","Disagree","Monthly","Female","No","original_orange1.png","1","3",2.385,8,"original","orange"
"gyiu98",22,"No","3","Disagree","Disagree","Monthly","Female","No","edited_gulpink1.png","1","3",3.753,9,"edited","pink"
"gyiu98",22,"No","3","Disagree","Disagree","Monthly","Female","No","original_gulpink1.png","1","3",1.932,10,"original","yellow"
"gyiu98",22,"No","3","Disagree","Disagree","Monthly","Female","No","edited_green1.png","1","3",3.61,11,"edited","green"
"gyiu98",22,"No","4","Disagree","Disagree","Monthly","Female","No","edited_blue2.png","1","4",1.749,12,"edited","blue"
"gyiu98",22,"No","1","Disagree","Disagree","Monthly","Female","No","edited_orange2.png","0","3",2.798,13,"edited","orange"
"gyiu98",22,"No","4","Disagree","Disagree","Monthly","Female","No","original_gulpink2.png","1","4",2.203,14,"original","yellow"
"gyiu98",22,"No","4","Disagree","Disagree","Monthly","Female","No","original_blue2.png","1","4",1.996,15,"original","blue"
"haps123",24,"No","3","Neither nor","Strongly agree","Monthly","Female","Yes","original_gulpink1.png","1","3",4.254,0,"original","yellow"
"haps123",24,"No","4","Neither nor","Strongly agree","Monthly","Female","Yes","original_gulpink2.png","1","4",3.557,1,"original","yellow"
"haps123",24,"No","3","Neither nor","Strongly agree","Monthly","Female","Yes","original_orange1.png","1","3",3.239,2,"original","orange"
"haps123",24,"No","2","Neither nor","Strongly agree","Monthly","Female","Yes","edited_blue1.png","1","2",1.51,3,"edited","blue"
"haps123",24,"No","2","Neither nor","Strongly agree","Monthly","Female","Yes","original_green2.png","1","2",3.007,4,"original","green"
"haps123",24,"No","1","Neither nor","Strongly agree","Monthly","Female","Yes","edited_orange2.png","0","2",3.097,5,"edited","orange"
"haps123",24,"No","3","Neither nor","Strongly agree","Monthly","Female","Yes","edited_gulpink1.png","1","3",3.358,6,"edited","pink"
"haps123",24,"No","4","Neither nor","Strongly agree","Monthly","Female","Yes","edited_gulpink2.png","1","4",1.311,7,"edited","pink"
"haps123",24,"No","2","Neither nor","Strongly agree","Monthly","Female","Yes","edited_green2.png","1","2",2.008,8,"edited","green"
"haps123",24,"No","3","Neither nor","Strongly agree","Monthly","Female","Yes","original_green1.png","1","3",2.071,9,"original","green"
"haps123",24,"No","3","Neither nor","Strongly agree","Monthly","Female","Yes","edited_orange1.png","1","3",2.207,10,"edited","orange"
"haps123",24,"No","1","Neither nor","Strongly agree","Monthly","Female","Yes","original_orange2.png","1","1",2.481,11,"original","orange"
"haps123",24,"No","4","Neither nor","Strongly agree","Monthly","Female","Yes","edited_blue2.png","1","4",2.544,12,"edited","blue"
"haps123",24,"No","2","Neither nor","Strongly agree","Monthly","Female","Yes","original_blue1.png","1","2",1.727,13,"original","blue"
"haps123",24,"No","3","Neither nor","Strongly agree","Monthly","Female","Yes","edited_green1.png","1","3",2.976,14,"edited","green"
"haps123",24,"No","4","Neither nor","Strongly agree","Monthly","Female","Yes","original_blue2.png","1","4",2.495,15,"original","blue"
"hej1721",24,"No","4","Strongly agree","Agree","Monthly","Female","Yes","edited_gulpink2.png","1","4",4.1364,0,"edited","pink"
"hej1721",24,"No","2","Strongly agree","Agree","Monthly","Female","Yes","original_green2.png","1","2",2.6725,1,"original","green"
"hej1721",24,"No","3","Strongly agree","Agree","Monthly","Female","Yes","original_gulpink1.png","1","3",2.8276,2,"original","yellow"
"hej1721",24,"No","4","Strongly agree","Agree","Monthly","Female","Yes","original_gulpink2.png","1","4",2.421,3,"original","yellow"
"hej1721",24,"No","3","Strongly agree","Agree","Monthly","Female","Yes","edited_orange1.png","1","3",2.9303,4,"edited","orange"
"hej1721",24,"No","3","Strongly agree","Agree","Monthly","Female","Yes","original_green1.png","1","3",2.2099,5,"original","green"
"hej1721",24,"No","3","Strongly agree","Agree","Monthly","Female","Yes","edited_gulpink1.png","1","3",1.811,6,"edited","pink"
"hej1721",24,"No","3","Strongly agree","Agree","Monthly","Female","Yes","original_orange1.png","0","2",2.0532,7,"original","orange"
"hej1721",24,"No","4","Strongly agree","Agree","Monthly","Female","Yes","original_blue2.png","1","4",1.846,8,"original","blue"
"hej1721",24,"No","1","Strongly agree","Agree","Monthly","Female","Yes","original_orange2.png","1","1",1.5775,9,"original","orange"
"hej1721",24,"No","2","Strongly agree","Agree","Monthly","Female","Yes","original_blue1.png","1","2",1.6412,10,"original","blue"
"hej1721",24,"No","1","Strongly agree","Agree","Monthly","Female","Yes","edited_orange2.png","0","3",1.8374,11,"edited","orange"
"hej1721",24,"No","2","Strongly agree","Agree","Monthly","Female","Yes","edited_green2.png","1","2",1.9193,12,"edited","green"
"hej1721",24,"No","4","Strongly agree","Agree","Monthly","Female","Yes","edited_blue2.png","1","4",2.2653,13,"edited","blue"
"hej1721",24,"No","3","Strongly agree","Agree","Monthly","Female","Yes","edited_green1.png","0","2",1.8611,14,"edited","green"
"hej1721",24,"No","2","Strongly agree","Agree","Monthly","Female","Yes","edited_blue1.png","1","2",2.6123,15,"edited","blue"
"hej7",25,"No","3","Strongly agree","Agree","Monthly","Female","No","original_gulpink1.png","1","3",5.249,0,"original","yellow"
"hej7",25,"No","3","Strongly agree","Agree","Monthly","Female","No","original_green1.png","0","4",3.424,1,"original","green"
"hej7",25,"No","2","Strongly agree","Agree","Monthly","Female","No","edited_blue1.png","1","2",3.779,2,"edited","blue"
"hej7",25,"No","4","Strongly agree","Agree","Monthly","Female","No","edited_gulpink2.png","1","4",8.038,3,"edited","pink"
"hej7",25,"No","3","Strongly agree","Agree","Monthly","Female","No","original_orange1.png","1","3",4.4,4,"original","orange"
"hej7",25,"No","1","Strongly agree","Agree","Monthly","Female","No","original_orange2.png","1","1",1.606,5,"original","orange"
"hej7",25,"No","4","Strongly agree","Agree","Monthly","Female","No","original_blue2.png","0","2",1.754,6,"original","blue"
"hej7",25,"No","2","Strongly agree","Agree","Monthly","Female","No","edited_green2.png","1","2",4.666,7,"edited","green"
"hej7",25,"No","2","Strongly agree","Agree","Monthly","Female","No","original_green2.png","1","2",2.738,8,"original","green"
"hej7",25,"No","1","Strongly agree","Agree","Monthly","Female","No","edited_orange2.png","0","3",3.413,9,"edited","orange"
"hej7",25,"No","2","Strongly agree","Agree","Monthly","Female","No","original_blue1.png","1","2",3.311,10,"original","blue"
"hej7",25,"No","3","Strongly agree","Agree","Monthly","Female","No","edited_orange1.png","1","3",2.959,11,"edited","orange"
"hej7",25,"No","4","Strongly agree","Agree","Monthly","Female","No","edited_blue2.png","1","4",3.614,12,"edited","blue"
"hej7",25,"No","3","Strongly agree","Agree","Monthly","Female","No","edited_green1.png","0","2",2.997,13,"edited","green"
"hej7",25,"No","3","Strongly agree","Agree","Monthly","Female","No","edited_gulpink1.png","1","3",4.608,14,"edited","pink"
"hej7",25,"No","4","Strongly agree","Agree","Monthly","Female","No","original_gulpink2.png","1","4",2.731,15,"original","yellow"
"HØNS112",17,"No","3","Agree","Agree","Every 3rd month","Female","No","edited_green1.png","1","3",6.1075,0,"edited","green"
"HØNS112",17,"No","3","Agree","Agree","Every 3rd month","Female","No","edited_gulpink1.png","1","3",4.7061,1,"edited","pink"
"HØNS112",17,"No","4","Agree","Agree","Every 3rd month","Female","No","original_blue2.png","1","4",4.5138,2,"original","blue"
"HØNS112",17,"No","3","Agree","Agree","Every 3rd month","Female","No","edited_orange1.png","1","3",3.9936,3,"edited","orange"
"HØNS112",17,"No","3","Agree","Agree","Every 3rd month","Female","No","original_gulpink1.png","1","3",7.6599,4,"original","yellow"
"HØNS112",17,"No","2","Agree","Agree","Every 3rd month","Female","No","original_green2.png","1","2",4.9452,5,"original","green"
"HØNS112",17,"No","2","Agree","Agree","Every 3rd month","Female","No","edited_blue1.png","1","2",4.3633,6,"edited","blue"
"HØNS112",17,"No","2","Agree","Agree","Every 3rd month","Female","No","original_blue1.png","1","2",4.5052,7,"original","blue"
"HØNS112",17,"No","4","Agree","Agree","Every 3rd month","Female","No","original_gulpink2.png","1","4",4.5736,8,"original","yellow"
"HØNS112",17,"No","4","Agree","Agree","Every 3rd month","Female","No","edited_blue2.png","1","4",4.9668,9,"edited","blue"
"HØNS112",17,"No","4","Agree","Agree","Every 3rd month","Female","No","edited_gulpink2.png","1","4",5.2198,10,"edited","pink"
"HØNS112",17,"No","2","Agree","Agree","Every 3rd month","Female","No","edited_green2.png","1","2",4.6523,11,"edited","green"
"HØNS112",17,"No","3","Agree","Agree","Every 3rd month","Female","No","original_green1.png","1","3",4.1915,12,"original","green"
"HØNS112",17,"No","3","Agree","Agree","Every 3rd month","Female","No","original_orange1.png","1","3",6.7581,13,"original","orange"
"HØNS112",17,"No","1","Agree","Agree","Every 3rd month","Female","No","edited_orange2.png","0","2",6.0533,14,"edited","orange"
"HØNS112",17,"No","1","Agree","Agree","Every 3rd month","Female","No","original_orange2.png","1","1",3.6536,15,"original","orange"
"Jegor62",61,"No","3","Neither nor","Neither nor","Monthly","Male","No","original_green1.png","1","3",16.3951,0,"original","green"
"Jegor62",61,"No","4","Neither nor","Neither nor","Monthly","Male","No","original_blue2.png","1","4",4.9414,1,"original","blue"
"Jegor62",61,"No","3","Neither nor","Neither nor","Monthly","Male","No","original_orange1.png","0","1",8.7492,2,"original","orange"
"Jegor62",61,"No","3","Neither nor","Neither nor","Monthly","Male","No","original_gulpink1.png","1","3",5.4036,3,"original","yellow"
"Jegor62",61,"No","1","Neither nor","Neither nor","Monthly","Male","No","edited_orange2.png","0","2",4.1046,4,"edited","orange"
"Jegor62",61,"No","2","Neither nor","Neither nor","Monthly","Male","No","original_green2.png","0","3",7.6627,5,"original","green"
"Jegor62",61,"No","2","Neither nor","Neither nor","Monthly","Male","No","edited_green2.png","1","2",5.5819,6,"edited","green"
"Jegor62",61,"No","4","Neither nor","Neither nor","Monthly","Male","No","edited_gulpink2.png","1","4",4.9063,7,"edited","pink"
"Jegor62",61,"No","4","Neither nor","Neither nor","Monthly","Male","No","original_gulpink2.png","1","4",6.0455,8,"original","yellow"
"Jegor62",61,"No","3","Neither nor","Neither nor","Monthly","Male","No","edited_green1.png","1","3",3.924,9,"edited","green"
"Jegor62",61,"No","3","Neither nor","Neither nor","Monthly","Male","No","edited_gulpink1.png","1","3",5.055,10,"edited","pink"
"Jegor62",61,"No","2","Neither nor","Neither nor","Monthly","Male","No","original_blue1.png","1","2",5.669,11,"original","blue"
"Jegor62",61,"No","3","Neither nor","Neither nor","Monthly","Male","No","edited_orange1.png","0","2",4.9231,12,"edited","orange"
"Jegor62",61,"No","2","Neither nor","Neither nor","Monthly","Male","No","edited_blue1.png","1","2",4.2384,13,"edited","blue"
"Jegor62",61,"No","1","Neither nor","Neither nor","Monthly","Male","No","original_orange2.png","1","1",2.5733,14,"original","orange"
"Jegor62",61,"No","4","Neither nor","Neither nor","Monthly","Male","No","edited_blue2.png","1","4",4.3507,15,"edited","blue"
"jyd78nhg79",18,"No","2","Agree","Disagree","Semi-annually","Female","No","original_green2.png","1","2",4.4046,0,"original","green"
"jyd78nhg79",18,"No","2","Agree","Disagree","Semi-annually","Female","No","original_blue1.png","1","2",2.493,1,"original","blue"
"jyd78nhg79",18,"No","1","Agree","Disagree","Semi-annually","Female","No","edited_orange2.png","0","3",3.3912,2,"edited","orange"
"jyd78nhg79",18,"No","3","Agree","Disagree","Semi-annually","Female","No","original_gulpink1.png","1","3",2.4082,3,"original","yellow"
"jyd78nhg79",18,"No","4","Agree","Disagree","Semi-annually","Female","No","original_blue2.png","1","4",2.9324,4,"original","blue"
"jyd78nhg79",18,"No","3","Agree","Disagree","Semi-annually","Female","No","edited_green1.png","1","3",3.126,5,"edited","green"
"jyd78nhg79",18,"No","2","Agree","Disagree","Semi-annually","Female","No","edited_blue1.png","1","2",2.5927,6,"edited","blue"
"jyd78nhg79",18,"No","3","Agree","Disagree","Semi-annually","Female","No","edited_orange1.png","1","3",3.2099,7,"edited","orange"
"jyd78nhg79",18,"No","1","Agree","Disagree","Semi-annually","Female","No","original_orange2.png","1","1",2.3625,8,"original","orange"
"jyd78nhg79",18,"No","3","Agree","Disagree","Semi-annually","Female","No","original_green1.png","1","3",2.4131,9,"original","green"
"jyd78nhg79",18,"No","3","Agree","Disagree","Semi-annually","Female","No","original_orange1.png","1","3",2.1144,10,"original","orange"
"jyd78nhg79",18,"No","2","Agree","Disagree","Semi-annually","Female","No","edited_green2.png","1","2",2.8259,11,"edited","green"
"jyd78nhg79",18,"No","3","Agree","Disagree","Semi-annually","Female","No","edited_gulpink1.png","1","3",3.243,12,"edited","pink"
"jyd78nhg79",18,"No","4","Agree","Disagree","Semi-annually","Female","No","edited_gulpink2.png","1","4",2.2477,13,"edited","pink"
"jyd78nhg79",18,"No","4","Agree","Disagree","Semi-annually","Female","No","edited_blue2.png","1","4",2.2761,14,"edited","blue"
"jyd78nhg79",18,"No","4","Agree","Disagree","Semi-annually","Female","No","original_gulpink2.png","1","4",2.9922,15,"original","yellow"
"K5gu78",23,"No","4","Neither nor","Neither nor","Semi-annually","Female","No","original_gulpink2.png","1","4",4.7098,0,"original","yellow"
"K5gu78",23,"No","3","Neither nor","Neither nor","Semi-annually","Female","No","edited_green1.png","1","3",3.1039,1,"edited","green"
"K5gu78",23,"No","4","Neither nor","Neither nor","Semi-annually","Female","No","edited_gulpink2.png","1","4",3.4726,2,"edited","pink"
"K5gu78",23,"No","3","Neither nor","Neither nor","Semi-annually","Female","No","edited_gulpink1.png","1","3",2.8372,3,"edited","pink"
"K5gu78",23,"No","3","Neither nor","Neither nor","Semi-annually","Female","No","original_green1.png","0","2",3.4228,4,"original","green"
"K5gu78",23,"No","3","Neither nor","Neither nor","Semi-annually","Female","No","edited_orange1.png","1","3",4.4397,5,"edited","orange"
"K5gu78",23,"No","1","Neither nor","Neither nor","Semi-annually","Female","No","edited_orange2.png","0","3",3.9706,6,"edited","orange"
"K5gu78",23,"No","2","Neither nor","Neither nor","Semi-annually","Female","No","original_blue1.png","1","2",2.8526,7,"original","blue"
"K5gu78",23,"No","2","Neither nor","Neither nor","Semi-annually","Female","No","edited_green2.png","1","2",2.4788,8,"edited","green"
"K5gu78",23,"No","3","Neither nor","Neither nor","Semi-annually","Female","No","original_orange1.png","1","3",3.7054,9,"original","orange"
"K5gu78",23,"No","4","Neither nor","Neither nor","Semi-annually","Female","No","edited_blue2.png","1","4",2.697,10,"edited","blue"
"K5gu78",23,"No","4","Neither nor","Neither nor","Semi-annually","Female","No","original_blue2.png","1","4",3.2293,11,"original","blue"
"K5gu78",23,"No","2","Neither nor","Neither nor","Semi-annually","Female","No","original_green2.png","1","2",3.3798,12,"original","green"
"K5gu78",23,"No","3","Neither nor","Neither nor","Semi-annually","Female","No","original_gulpink1.png","1","3",2.364,13,"original","yellow"
"K5gu78",23,"No","1","Neither nor","Neither nor","Semi-annually","Female","No","original_orange2.png","1","1",2.2218,14,"original","orange"
"K5gu78",23,"No","2","Neither nor","Neither nor","Semi-annually","Female","No","edited_blue1.png","1","2",2.1018,15,"edited","blue"
"KJ19",23,"No","3","Strongly agree","Strongly agree","Rarely","Female","No","original_gulpink1.png","1","3",5.319,0,"original","yellow"
"KJ19",23,"No","4","Strongly agree","Strongly agree","Rarely","Female","No","edited_gulpink2.png","1","4",1.809,1,"edited","pink"
"KJ19",23,"No","3","Strongly agree","Strongly agree","Rarely","Female","No","original_orange1.png","0","2",3.613,2,"original","orange"
"KJ19",23,"No","2","Strongly agree","Strongly agree","Rarely","Female","No","edited_blue1.png","1","2",2.663,3,"edited","blue"
"KJ19",23,"No","3","Strongly agree","Strongly agree","Rarely","Female","No","edited_green1.png","0","2",2.294,4,"edited","green"
"KJ19",23,"No","1","Strongly agree","Strongly agree","Rarely","Female","No","original_orange2.png","1","1",3.251,5,"original","orange"
"KJ19",23,"No","3","Strongly agree","Strongly agree","Rarely","Female","No","edited_gulpink1.png","1","3",1.241,6,"edited","pink"
"KJ19",23,"No","4","Strongly agree","Strongly agree","Rarely","Female","No","edited_blue2.png","0","3",2.078,7,"edited","blue"
"KJ19",23,"No","4","Strongly agree","Strongly agree","Rarely","Female","No","original_gulpink2.png","1","4",3.025,8,"original","yellow"
"KJ19",23,"No","1","Strongly agree","Strongly agree","Rarely","Female","No","edited_orange2.png","0","2",2.159,9,"edited","orange"
"KJ19",23,"No","2","Strongly agree","Strongly agree","Rarely","Female","No","original_blue1.png","1","2",2.142,10,"original","blue"
"KJ19",23,"No","3","Strongly agree","Strongly agree","Rarely","Female","No","original_green1.png","1","3",2.207,11,"original","green"
"KJ19",23,"No","2","Strongly agree","Strongly agree","Rarely","Female","No","edited_green2.png","1","2",1.975,12,"edited","green"
"KJ19",23,"No","3","Strongly agree","Strongly agree","Rarely","Female","No","edited_orange1.png","1","3",2.076,13,"edited","orange"
"KJ19",23,"No","2","Strongly agree","Strongly agree","Rarely","Female","No","original_green2.png","1","2",2.147,14,"original","green"
"KJ19",23,"No","4","Strongly agree","Strongly agree","Rarely","Female","No","original_blue2.png","1","4",2.719,15,"original","blue"
"KleinOgAbel",24,"No","1","Disagree","Strongly disagree","Weekly","Male","Yes","original_orange2.png","1","1",2.2095,0,"original","orange"
"KleinOgAbel",24,"No","1","Disagree","Strongly disagree","Weekly","Male","Yes","edited_orange2.png","0","3",4.239,1,"edited","orange"
"KleinOgAbel",24,"No","2","Disagree","Strongly disagree","Weekly","Male","Yes","edited_blue1.png","1","2",2.0484,2,"edited","blue"
"KleinOgAbel",24,"No","3","Disagree","Strongly disagree","Weekly","Male","Yes","original_green1.png","1","3",3.9698,3,"original","green"
"KleinOgAbel",24,"No","3","Disagree","Strongly disagree","Weekly","Male","Yes","edited_orange1.png","1","3",2.5689,4,"edited","orange"
"KleinOgAbel",24,"No","2","Disagree","Strongly disagree","Weekly","Male","Yes","original_green2.png","1","2",4.3526,5,"original","green"
"KleinOgAbel",24,"No","4","Disagree","Strongly disagree","Weekly","Male","Yes","edited_blue2.png","1","4",2.4129,6,"edited","blue"
"KleinOgAbel",24,"No","3","Disagree","Strongly disagree","Weekly","Male","Yes","original_orange1.png","1","3",1.9034,7,"original","orange"
"KleinOgAbel",24,"No","4","Disagree","Strongly disagree","Weekly","Male","Yes","original_gulpink2.png","1","4",2.4373,8,"original","yellow"
"KleinOgAbel",24,"No","2","Disagree","Strongly disagree","Weekly","Male","Yes","original_blue1.png","1","2",2.203,9,"original","blue"
"KleinOgAbel",24,"No","3","Disagree","Strongly disagree","Weekly","Male","Yes","edited_gulpink1.png","1","3",2.1729,10,"edited","pink"
"KleinOgAbel",24,"No","3","Disagree","Strongly disagree","Weekly","Male","Yes","original_gulpink1.png","1","3",2.5169,11,"original","yellow"
"KleinOgAbel",24,"No","4","Disagree","Strongly disagree","Weekly","Male","Yes","edited_gulpink2.png","1","4",1.806,12,"edited","pink"
"KleinOgAbel",24,"No","2","Disagree","Strongly disagree","Weekly","Male","Yes","edited_green2.png","1","2",1.702,13,"edited","green"
"KleinOgAbel",24,"No","4","Disagree","Strongly disagree","Weekly","Male","Yes","original_blue2.png","1","4",1.5887,14,"original","blue"
"KleinOgAbel",24,"No","3","Disagree","Strongly disagree","Weekly","Male","Yes","edited_green1.png","1","3",1.6516,15,"edited","green"
"lolhest123",19,"No","1","Agree","Agree","Monthly","Female","No","original_orange2.png","1","1",9.863,0,"original","orange"
"lolhest123",19,"No","2","Agree","Agree","Monthly","Female","No","edited_blue1.png","0","4",4.1446,1,"edited","blue"
"lolhest123",19,"No","4","Agree","Agree","Monthly","Female","No","original_gulpink2.png","1","4",3.7251,2,"original","yellow"
"lolhest123",19,"No","4","Agree","Agree","Monthly","Female","No","edited_gulpink2.png","0","5",3.6046,3,"edited","pink"
"lolhest123",19,"No","4","Agree","Agree","Monthly","Female","No","original_blue2.png","1","4",4.4714,4,"original","blue"
"lolhest123",19,"No","1","Agree","Agree","Monthly","Female","No","edited_orange2.png","0","7",3.7584,5,"edited","orange"
"lolhest123",19,"No","3","Agree","Agree","Monthly","Female","No","original_gulpink1.png","0","2",2.6957,6,"original","yellow"
"lolhest123",19,"No","3","Agree","Agree","Monthly","Female","No","original_green1.png","0","2",4.9262,7,"original","green"
"lolhest123",19,"No","2","Agree","Agree","Monthly","Female","No","original_green2.png","1","2",3.3842,8,"original","green"
"lolhest123",19,"No","3","Agree","Agree","Monthly","Female","No","edited_gulpink1.png","0","2",4.1619,9,"edited","pink"
"lolhest123",19,"No","2","Agree","Agree","Monthly","Female","No","edited_green2.png","0","1",4.5779,10,"edited","green"
"lolhest123",19,"No","2","Agree","Agree","Monthly","Female","No","original_blue1.png","1","2",3.4083,11,"original","blue"
"lolhest123",19,"No","4","Agree","Agree","Monthly","Female","No","edited_blue2.png","0","6",3.7973,12,"edited","blue"
"lolhest123",19,"No","3","Agree","Agree","Monthly","Female","No","edited_orange1.png","0","6",3.9622,13,"edited","orange"
"lolhest123",19,"No","3","Agree","Agree","Monthly","Female","No","edited_green1.png","0","2",2.5971,14,"edited","green"
"lolhest123",19,"No","3","Agree","Agree","Monthly","Female","No","original_orange1.png","0","2",3.2908,15,"original","orange"
"Lou97",26,"No","1","Neither nor","Disagree","Semi-annually","Female","No","original_orange2.png","1","1",3.5057,0,"original","orange"
"Lou97",26,"No","2","Neither nor","Disagree","Semi-annually","Female","No","edited_blue1.png","1","2",3.2141,1,"edited","blue"
"Lou97",26,"No","1","Neither nor","Disagree","Semi-annually","Female","No","edited_orange2.png","0","2",5.0016,2,"edited","orange"
"Lou97",26,"No","4","Neither nor","Disagree","Semi-annually","Female","No","edited_blue2.png","1","4",4.2308,3,"edited","blue"
"Lou97",26,"No","2","Neither nor","Disagree","Semi-annually","Female","No","original_blue1.png","1","2",3.4996,4,"original","blue"
"Lou97",26,"No","3","Neither nor","Disagree","Semi-annually","Female","No","original_green1.png","1","3",5.4781,5,"original","green"
"Lou97",26,"No","2","Neither nor","Disagree","Semi-annually","Female","No","edited_green2.png","1","2",4.5648,6,"edited","green"
"Lou97",26,"No","4","Neither nor","Disagree","Semi-annually","Female","No","original_gulpink2.png","1","4",4.0544,7,"original","yellow"
"Lou97",26,"No","3","Neither nor","Disagree","Semi-annually","Female","No","edited_gulpink1.png","1","3",2.2979,8,"edited","pink"
"Lou97",26,"No","3","Neither nor","Disagree","Semi-annually","Female","No","edited_orange1.png","0","2",4.4954,9,"edited","orange"
"Lou97",26,"No","4","Neither nor","Disagree","Semi-annually","Female","No","edited_gulpink2.png","1","4",2.8725,10,"edited","pink"
"Lou97",26,"No","4","Neither nor","Disagree","Semi-annually","Female","No","original_blue2.png","1","4",3.9221,11,"original","blue"
"Lou97",26,"No","3","Neither nor","Disagree","Semi-annually","Female","No","edited_green1.png","1","3",3.964,12,"edited","green"
"Lou97",26,"No","2","Neither nor","Disagree","Semi-annually","Female","No","original_green2.png","1","2",3.6148,13,"original","green"
"Lou97",26,"No","3","Neither nor","Disagree","Semi-annually","Female","No","original_orange1.png","0","2",2.6387,14,"original","orange"
"Lou97",26,"No","3","Neither nor","Disagree","Semi-annually","Female","No","original_gulpink1.png","1","3",2.785,15,"original","yellow"
"Lynge31",25,"No","3","Neither nor","Disagree","Every 3rd month","Male","No","edited_gulpink1.png","1","3",4.874,0,"edited","pink"
"Lynge31",25,"No","1","Neither nor","Disagree","Every 3rd month","Male","No","edited_orange2.png","0","3",3.307,1,"edited","orange"
"Lynge31",25,"No","2","Neither nor","Disagree","Every 3rd month","Male","No","original_blue1.png","1","2",2.878,2,"original","blue"
"Lynge31",25,"No","3","Neither nor","Disagree","Every 3rd month","Male","No","original_gulpink1.png","1","3",2.47,3,"original","yellow"
"Lynge31",25,"No","2","Neither nor","Disagree","Every 3rd month","Male","No","original_green2.png","1","2",3.171,4,"original","green"
"Lynge31",25,"No","4","Neither nor","Disagree","Every 3rd month","Male","No","edited_blue2.png","1","4",3.409,5,"edited","blue"
"Lynge31",25,"No","2","Neither nor","Disagree","Every 3rd month","Male","No","edited_blue1.png","1","2",2.24,6,"edited","blue"
"Lynge31",25,"No","2","Neither nor","Disagree","Every 3rd month","Male","No","edited_green2.png","1","2",2.198,7,"edited","green"
"Lynge31",25,"No","4","Neither nor","Disagree","Every 3rd month","Male","No","original_blue2.png","1","4",2.189,8,"original","blue"
"Lynge31",25,"No","3","Neither nor","Disagree","Every 3rd month","Male","No","edited_green1.png","1","3",2.399,9,"edited","green"
"Lynge31",25,"No","3","Neither nor","Disagree","Every 3rd month","Male","No","edited_orange1.png","1","3",2.412,10,"edited","orange"
"Lynge31",25,"No","3","Neither nor","Disagree","Every 3rd month","Male","No","original_orange1.png","1","3",2.45,11,"original","orange"
"Lynge31",25,"No","4","Neither nor","Disagree","Every 3rd month","Male","No","edited_gulpink2.png","1","4",2.61,12,"edited","pink"
"Lynge31",25,"No","1","Neither nor","Disagree","Every 3rd month","Male","No","original_orange2.png","1","1",1.88,13,"original","orange"
"Lynge31",25,"No","3","Neither nor","Disagree","Every 3rd month","Male","No","original_green1.png","1","3",3.248,14,"original","green"
"Lynge31",25,"No","4","Neither nor","Disagree","Every 3rd month","Male","No","original_gulpink2.png","1","4",1.812,15,"original","yellow"
"M123",26,"No","4","Disagree","Disagree","Every 3rd month","Female","No","original_blue2.png","1","4",3.783,0,"original","blue"
"M123",26,"No","3","Disagree","Disagree","Every 3rd month","Female","No","original_green1.png","1","3",4.04,1,"original","green"
"M123",26,"No","3","Disagree","Disagree","Every 3rd month","Female","No","original_gulpink1.png","1","3",2.451,2,"original","yellow"
"M123",26,"No","2","Disagree","Disagree","Every 3rd month","Female","No","edited_blue1.png","1","2",2.772,3,"edited","blue"
"M123",26,"No","3","Disagree","Disagree","Every 3rd month","Female","No","edited_green1.png","1","3",3.885,4,"edited","green"
"M123",26,"No","2","Disagree","Disagree","Every 3rd month","Female","No","original_green2.png","1","2",3.975,5,"original","green"
"M123",26,"No","1","Disagree","Disagree","Every 3rd month","Female","No","original_orange2.png","1","1",2.455,6,"original","orange"
"M123",26,"No","3","Disagree","Disagree","Every 3rd month","Female","No","edited_orange1.png","1","3",3.878,7,"edited","orange"
"M123",26,"No","1","Disagree","Disagree","Every 3rd month","Female","No","edited_orange2.png","0","3",2.83,8,"edited","orange"
"M123",26,"No","3","Disagree","Disagree","Every 3rd month","Female","No","original_orange1.png","1","3",5.034,9,"original","orange"
"M123",26,"No","4","Disagree","Disagree","Every 3rd month","Female","No","original_gulpink2.png","1","4",4.261,10,"original","yellow"
"M123",26,"No","2","Disagree","Disagree","Every 3rd month","Female","No","edited_green2.png","1","2",3.461,11,"edited","green"
"M123",26,"No","4","Disagree","Disagree","Every 3rd month","Female","No","edited_gulpink2.png","1","4",2.845,12,"edited","pink"
"M123",26,"No","2","Disagree","Disagree","Every 3rd month","Female","No","original_blue1.png","1","2",2.424,13,"original","blue"
"M123",26,"No","3","Disagree","Disagree","Every 3rd month","Female","No","edited_gulpink1.png","1","3",3.281,14,"edited","pink"
"M123",26,"No","4","Disagree","Disagree","Every 3rd month","Female","No","edited_blue2.png","1","4",2.55,15,"edited","blue"
"OMY618",31,"No","2","Agree","Neither nor","Rarely","Male","No","original_blue1.png","1","2",7.381,0,"original","blue"
"OMY618",31,"No","3","Agree","Neither nor","Rarely","Male","No","edited_gulpink1.png","1","3",2.905,1,"edited","pink"
"OMY618",31,"No","2","Agree","Neither nor","Rarely","Male","No","edited_green2.png","1","2",2.808,2,"edited","green"
"OMY618",31,"No","1","Agree","Neither nor","Rarely","Male","No","original_orange2.png","1","1",1.838,3,"original","orange"
"OMY618",31,"No","2","Agree","Neither nor","Rarely","Male","No","original_green2.png","1","2",2.283,4,"original","green"
"OMY618",31,"No","3","Agree","Neither nor","Rarely","Male","No","edited_green1.png","0","2",1.505,5,"edited","green"
"OMY618",31,"No","3","Agree","Neither nor","Rarely","Male","No","original_orange1.png","0","2",1.698,6,"original","orange"
"OMY618",31,"No","3","Agree","Neither nor","Rarely","Male","No","original_green1.png","1","3",2.743,7,"original","green"
"OMY618",31,"No","4","Agree","Neither nor","Rarely","Male","No","original_blue2.png","1","4",2.791,8,"original","blue"
"OMY618",31,"No","1","Agree","Neither nor","Rarely","Male","No","edited_orange2.png","0","3",2.857,9,"edited","orange"
"OMY618",31,"No","2","Agree","Neither nor","Rarely","Male","No","edited_blue1.png","1","2",1.519,10,"edited","blue"
"OMY618",31,"No","4","Agree","Neither nor","Rarely","Male","No","edited_gulpink2.png","1","4",2.879,11,"edited","pink"
"OMY618",31,"No","3","Agree","Neither nor","Rarely","Male","No","original_gulpink1.png","1","3",1.59,12,"original","yellow"
"OMY618",31,"No","4","Agree","Neither nor","Rarely","Male","No","edited_blue2.png","1","4",2.694,13,"edited","blue"
"OMY618",31,"No","3","Agree","Neither nor","Rarely","Male","No","edited_orange1.png","1","3",2.256,14,"edited","orange"
"OMY618",31,"No","4","Agree","Neither nor","Rarely","Male","No","original_gulpink2.png","1","4",2.426,15,"original","yellow"
"tohitu1",24,"No","2","Strongly agree","Neither nor","Weekly","Female","Yes","original_green2.png","1","2",2.1826,0,"original","green"
"tohitu1",24,"No","3","Strongly agree","Neither nor","Weekly","Female","Yes","original_gulpink1.png","0","2",1.867,1,"original","yellow"
"tohitu1",24,"No","4","Strongly agree","Neither nor","Weekly","Female","Yes","edited_blue2.png","1","4",1.8434,2,"edited","blue"
"tohitu1",24,"No","4","Strongly agree","Neither nor","Weekly","Female","Yes","original_blue2.png","1","4",1.7354,3,"original","blue"
"tohitu1",24,"No","1","Strongly agree","Neither nor","Weekly","Female","Yes","original_orange2.png","1","1",1.3795,4,"original","orange"
"tohitu1",24,"No","3","Strongly agree","Neither nor","Weekly","Female","Yes","edited_orange1.png","1","3",2.138,5,"edited","orange"
"tohitu1",24,"No","1","Strongly agree","Neither nor","Weekly","Female","Yes","edited_orange2.png","0","3",1.1256,6,"edited","orange"
"tohitu1",24,"No","3","Strongly agree","Neither nor","Weekly","Female","Yes","edited_gulpink1.png","1","3",1.6703,7,"edited","pink"
"tohitu1",24,"No","3","Strongly agree","Neither nor","Weekly","Female","Yes","original_orange1.png","1","3",1.1677,8,"original","orange"
"tohitu1",24,"No","2","Strongly agree","Neither nor","Weekly","Female","Yes","edited_blue1.png","1","2",1.5722,9,"edited","blue"
"tohitu1",24,"No","4","Strongly agree","Neither nor","Weekly","Female","Yes","original_gulpink2.png","1","4",1.6737,10,"original","yellow"
"tohitu1",24,"No","3","Strongly agree","Neither nor","Weekly","Female","Yes","edited_green1.png","1","3",1.9924,11,"edited","green"
"tohitu1",24,"No","3","Strongly agree","Neither nor","Weekly","Female","Yes","original_green1.png","1","3",1.4323,12,"original","green"
"tohitu1",24,"No","2","Strongly agree","Neither nor","Weekly","Female","Yes","edited_green2.png","1","2",1.6155,13,"edited","green"
"tohitu1",24,"No","4","Strongly agree","Neither nor","Weekly","Female","Yes","edited_gulpink2.png","1","4",1.2887,14,"edited","pink"
"tohitu1",24,"No","2","Strongly agree","Neither nor","Weekly","Female","Yes","original_blue1.png","1","2",1.2845,15,"original","blue"
"yay",23,"No","4","Neither nor","Disagree","Every 3rd month","Male","No","original_gulpink2.png","1","4",6.3116,0,"original","yellow"
"yay",23,"No","4","Neither nor","Disagree","Every 3rd month","Male","No","edited_blue2.png","1","4",4.7347,1,"edited","blue"
"yay",23,"No","4","Neither nor","Disagree","Every 3rd month","Male","No","original_blue2.png","1","4",3.732,2,"original","blue"
"yay",23,"No","2","Neither nor","Disagree","Every 3rd month","Male","No","original_blue1.png","1","2",4.0202,3,"original","blue"
"yay",23,"No","3","Neither nor","Disagree","Every 3rd month","Male","No","original_green1.png","1","3",4.1628,4,"original","green"
"yay",23,"No","3","Neither nor","Disagree","Every 3rd month","Male","No","edited_green1.png","1","3",6.2911,5,"edited","green"
"yay",23,"No","2","Neither nor","Disagree","Every 3rd month","Male","No","edited_green2.png","1","2",3.2055,6,"edited","green"
"yay",23,"No","4","Neither nor","Disagree","Every 3rd month","Male","No","edited_gulpink2.png","1","4",4.5539,7,"edited","pink"
"yay",23,"No","3","Neither nor","Disagree","Every 3rd month","Male","No","edited_orange1.png","1","3",4.9766,8,"edited","orange"
"yay",23,"No","3","Neither nor","Disagree","Every 3rd month","Male","No","original_orange1.png","1","3",2.3184,9,"original","orange"
"yay",23,"No","1","Neither nor","Disagree","Every 3rd month","Male","No","edited_orange2.png","0","2",3.478,10,"edited","orange"
"yay",23,"No","3","Neither nor","Disagree","Every 3rd month","Male","No","original_gulpink1.png","1","3",4.5183,11,"original","yellow"
"yay",23,"No","2","Neither nor","Disagree","Every 3rd month","Male","No","edited_blue1.png","1","2",1.9582,12,"edited","blue"
"yay",23,"No","2","Neither nor","Disagree","Every 3rd month","Male","No","original_green2.png","1","2",2.8169,13,"original","green"
"yay",23,"No","1","Neither nor","Disagree","Every 3rd month","Male","No","original_orange2.png","1","1",3.0333,14,"original","orange"
"yay",23,"No","3","Neither nor","Disagree","Every 3rd month","Male","No","edited_gulpink1.png","1","3",2.9024,15,"edited","pink"
