"id","age","colorblind","correct_character_options","diff_remember","diff_understand","freq_game","gender","played_tang","edited_character_resp.keys","original_character_resp.keys","character_options","RT","trials_character.thisN","character_resp.corr","manipulation","character_type"
"251100",23,"No","c","Strongly disagree","Strongly disagree","Every 3rd month","Female","No",NA,"a","original_poet.png",8.84,0,0,"original","poet"
"251100",23,"No","b","Strongly disagree","Strongly disagree","Every 3rd month","Female","No",NA,"d","original_hermit.png",2.4819,1,0,"original","hermit"
"251100",23,"No","a","Strongly disagree","Strongly disagree","Every 3rd month","Female","No",NA,"b","original_monk.png",3.1244,2,0,"original","monk"
"251100",23,"No","d","Strongly disagree","Strongly disagree","Every 3rd month","Female","No",NA,"d","original_architect.png",1.8419,3,1,"original","architect"
"427569",28,"No","b","Strongly disagree","Disagree","Weekly","Male","No","a",NA,"edited_hermit.png",11.9409,0,0,"edited","hermit"
"427569",28,"No","d","Strongly disagree","Disagree","Weekly","Male","No","d",NA,"edited_architect.png",7.3349,1,1,"edited","architect"
"427569",28,"No","a","Strongly disagree","Disagree","Weekly","Male","No","b",NA,"edited_monk.png",5.5178,2,0,"edited","monk"
"427569",28,"No","c","Strongly disagree","Disagree","Weekly","Male","No","c",NA,"edited_poet.png",0.8109,3,1,"edited","poet"
"579998",26,"No","b","Disagree","Agree","Every 3rd month","Male","No","d",NA,"edited_hermit.png",10.9333,0,0,"edited","hermit"
"579998",26,"No","c","Disagree","Agree","Every 3rd month","Male","No","b",NA,"edited_poet.png",3.5751,1,0,"edited","poet"
"579998",26,"No","d","Disagree","Agree","Every 3rd month","Male","No","d",NA,"edited_architect.png",6.4458,2,1,"edited","architect"
"579998",26,"No","a","Disagree","Agree","Every 3rd month","Male","No","a",NA,"edited_monk.png",1.2942,3,1,"edited","monk"
"abcabc",25,"No","c","Disagree","Disagree","Semi-annually","Male","No","c",NA,"edited_poet.png",2.061,1,1,"edited","poet"
"abcabc",25,"No","a","Disagree","Disagree","Semi-annually","Male","No","a",NA,"edited_monk.png",6.16,0,1,"edited","monk"
"abcabc",25,"No","b","Disagree","Disagree","Semi-annually","Male","No","a",NA,"edited_hermit.png",3.984,2,0,"edited","hermit"
"abcabc",25,"No","d","Disagree","Disagree","Semi-annually","Male","No","d",NA,"edited_architect.png",1.669,3,1,"edited","architect"
"au691988",28,"No","c","Disagree","Agree","Every 3rd month","Male","No","c",NA,"edited_poet.png",5.1635,1,1,"edited","poet"
"au691988",28,"No","a","Disagree","Agree","Every 3rd month","Male","No","a",NA,"edited_monk.png",2.2601,2,1,"edited","monk"
"au691988",28,"No","d","Disagree","Agree","Every 3rd month","Male","No","d",NA,"edited_architect.png",1.5133,3,1,"edited","architect"
"au691988",28,"No","b","Disagree","Agree","Every 3rd month","Male","No","d",NA,"edited_hermit.png",12.987,0,0,"edited","hermit"
"Ben24jada",56,"No","b","Neither nor","Disagree","Monthly","Female","No",NA,"d","original_hermit.png",13.925,0,0,"original","hermit"
"Ben24jada",56,"No","a","Neither nor","Disagree","Monthly","Female","No",NA,"a","original_monk.png",7.8902,1,1,"original","monk"
"Ben24jada",56,"No","c","Neither nor","Disagree","Monthly","Female","No",NA,"b","original_poet.png",8.8203,2,0,"original","poet"
"Ben24jada",56,"No","d","Neither nor","Disagree","Monthly","Female","No",NA,"d","original_architect.png",4.9246,3,1,"original","architect"
"gyiu98",22,"No","b","Disagree","Disagree","Monthly","Female","No","b",NA,"edited_hermit.png",2.197,2,1,"edited","hermit"
"gyiu98",22,"No","a","Disagree","Disagree","Monthly","Female","No","a",NA,"edited_monk.png",1.213,3,1,"edited","monk"
"gyiu98",22,"No","c","Disagree","Disagree","Monthly","Female","No","c",NA,"edited_poet.png",9.057,0,1,"edited","poet"
"gyiu98",22,"No","d","Disagree","Disagree","Monthly","Female","No","d",NA,"edited_architect.png",1.67,1,1,"edited","architect"
"K5gu78",23,"No","b","Neither nor","Neither nor","Semi-annually","Female","No","b",NA,"edited_hermit.png",5.0198,0,1,"edited","hermit"
"K5gu78",23,"No","c","Neither nor","Neither nor","Semi-annually","Female","No","a",NA,"edited_poet.png",1.791,1,0,"edited","poet"
"K5gu78",23,"No","a","Neither nor","Neither nor","Semi-annually","Female","No","b",NA,"edited_monk.png",4.9615,2,0,"edited","monk"
"K5gu78",23,"No","d","Neither nor","Neither nor","Semi-annually","Female","No","d",NA,"edited_architect.png",1.571,3,1,"edited","architect"
"KleinOgAbel",24,"No","c","Disagree","Strongly disagree","Weekly","Male","Yes","c",NA,"edited_poet.png",6.9785,0,1,"edited","poet"
"KleinOgAbel",24,"No","b","Disagree","Strongly disagree","Weekly","Male","Yes","b",NA,"edited_hermit.png",5.8831,1,1,"edited","hermit"
"KleinOgAbel",24,"No","a","Disagree","Strongly disagree","Weekly","Male","Yes","a",NA,"edited_monk.png",2.4682,2,1,"edited","monk"
"KleinOgAbel",24,"No","d","Disagree","Strongly disagree","Weekly","Male","Yes","d",NA,"edited_architect.png",1.5296,3,1,"edited","architect"
"M123",26,"No","d","Disagree","Disagree","Every 3rd month","Female","No","d",NA,"edited_architect.png",1.998,0,1,"edited","architect"
"M123",26,"No","a","Disagree","Disagree","Every 3rd month","Female","No","a",NA,"edited_monk.png",1.486,1,1,"edited","monk"
"M123",26,"No","b","Disagree","Disagree","Every 3rd month","Female","No","b",NA,"edited_hermit.png",1.567,2,1,"edited","hermit"
"M123",26,"No","c","Disagree","Disagree","Every 3rd month","Female","No","c",NA,"edited_poet.png",1.006,3,1,"edited","poet"
"tohitu1",24,"No","c","Strongly agree","Neither nor","Weekly","Female","Yes",NA,"c","original_poet.png",1.2351,2,1,"original","poet"
"tohitu1",24,"No","d","Strongly agree","Neither nor","Weekly","Female","Yes",NA,"d","original_architect.png",1.4058,3,1,"original","architect"
"tohitu1",24,"No","a","Strongly agree","Neither nor","Weekly","Female","Yes",NA,"b","original_monk.png",4.044,0,0,"original","monk"
"tohitu1",24,"No","b","Strongly agree","Neither nor","Weekly","Female","Yes",NA,"b","original_hermit.png",3.5194,1,1,"original","hermit"
