original_character_resp.keys,original_character_resp.rt,trials_character_original.thisRepN,trials_character_original.thisTrialN,trials_character_original.thisN,trials_character_original.thisIndex,trials_character_original.ran,original_character_options,correct_character_options,id,date,expName,psychopyVersion,OS,frameRate,edited_character_resp.keys,edited_character_resp.corr,trials_character_edited.thisRepN,trials_character_edited.thisTrialN,trials_character_edited.thisN,trials_character_edited.thisIndex,trials_character_edited.ran,edited_character_options,seed_response.keys,seed_response.corr,seed_response.rt,trials_seeds.thisRepN,trials_seeds.thisTrialN,trials_seeds.thisN,trials_seeds.thisIndex,trials_seeds.ran,seed_options,correctSeednumber,tree_response.keys,tree_response.corr,tree_response.rt,trials_tree.thisRepN,trials_tree.thisTrialN,trials_tree.thisN,trials_tree.thisIndex,trials_tree.ran,tree_options,correctTreenumber,token_original_resp.keys,token_original_resp.corr,token_original_resp.rt,trials_tokens_original.thisRepN,trials_tokens_original.thisTrialN,trials_tokens_original.thisN,trials_tokens_original.thisIndex,trials_tokens_original.ran,original_token_options,correct_token_options,token_edited_resp.keys,token_edited_resp.corr,trials_tokens_edited.thisRepN,trials_tokens_edited.thisTrialN,trials_tokens_edited.thisN,trials_tokens_edited.thisIndex,trials_tokens_edited.ran,edited_token_options,gaze_response.keys,gaze_response.corr,gaze_response.rt,key_resp_6.keys,trials_gaze.thisRepN,trials_gaze.thisTrialN,trials_gaze.thisN,trials_gaze.thisIndex,trials_gaze.ran,options,correctGazeanswer,landscapeA_resp.keys,landscapeA_resp.corr,landscapeA_resp.rt,trials_sight_color.thisRepN,trials_sight_color.thisTrialN,trials_sight_color.thisN,trials_sight_color.thisIndex,trials_sight_color.ran,landscape_options,correct_landscape_options,landscapeB_resp.keys,landscapeB_resp.corr,trials_sight_black.thisRepN,trials_sight_black.thisTrialN,trials_sight_black.thisN,trials_sight_black.thisIndex,trials_sight_black.ran
a,4.511,0,0,0,1,1,original_hermit.png,b,haps123,2024-04-02_16h50.59.437,board game,2021.1.2,MacIntel,59.95203837,,,,,,,,,,,,,,,,,,,,,,,,,,,,,,,,,,,,,,,,,,,,,,,,,,,,,,,,,,,,,,,,,,,,,,,,,,
d,2.169,0,1,1,3,1,original_architect.png,d,haps123,2024-04-02_16h50.59.437,board game,2021.1.2,MacIntel,59.95203837,,,,,,,,,,,,,,,,,,,,,,,,,,,,,,,,,,,,,,,,,,,,,,,,,,,,,,,,,,,,,,,,,,,,,,,,,,
b,2.436,0,2,2,0,1,original_monk.png,a,haps123,2024-04-02_16h50.59.437,board game,2021.1.2,MacIntel,59.95203837,,,,,,,,,,,,,,,,,,,,,,,,,,,,,,,,,,,,,,,,,,,,,,,,,,,,,,,,,,,,,,,,,,,,,,,,,,
c,1.076,0,3,3,2,1,original_poet.png,c,haps123,2024-04-02_16h50.59.437,board game,2021.1.2,MacIntel,59.95203837,,,,,,,,,,,,,,,,,,,,,,,,,,,,,,,,,,,,,,,,,,,,,,,,,,,,,,,,,,,,,,,,,,,,,,,,,,
,,,,,,,,a,haps123,2024-04-02_16h50.59.437,board game,2021.1.2,MacIntel,59.95203837,,0,0,0,0,0,1,edited_monk.png,,,,,,,,,,,,,,,,,,,,,,,,,,,,,,,,,,,,,,,,,,,,,,,,,,,,,,,,,,,,,,,,,,
,,,,,,,,c,haps123,2024-04-02_16h50.59.437,board game,2021.1.2,MacIntel,59.95203837,,0,0,1,1,2,1,edited_poet.png,,,,,,,,,,,,,,,,,,,,,,,,,,,,,,,,,,,,,,,,,,,,,,,,,,,,,,,,,,,,,,,,,,
,,,,,,,,b,haps123,2024-04-02_16h50.59.437,board game,2021.1.2,MacIntel,59.95203837,,0,0,2,2,1,1,edited_hermit.png,,,,,,,,,,,,,,,,,,,,,,,,,,,,,,,,,,,,,,,,,,,,,,,,,,,,,,,,,,,,,,,,,,
,,,,,,,,d,haps123,2024-04-02_16h50.59.437,board game,2021.1.2,MacIntel,59.95203837,,0,0,3,3,3,1,edited_architect.png,,,,,,,,,,,,,,,,,,,,,,,,,,,,,,,,,,,,,,,,,,,,,,,,,,,,,,,,,,,,,,,,,,
,,,,,,,,,haps123,2024-04-02_16h50.59.437,board game,2021.1.2,MacIntel,59.95203837,,,,,,,,,1,1,2.923,0,0,0,11,1,gul_1_original.png,1,,,,,,,,,,,,,,,,,,,,,,,,,,,,,,,,,,,,,,,,,,,,,,,,,,,,,,,,
,,,,,,,,,haps123,2024-04-02_16h50.59.437,board game,2021.1.2,MacIntel,59.95203837,,,,,,,,,2,1,1.723,0,1,1,4,1,orange_2_grey.png,2,,,,,,,,,,,,,,,,,,,,,,,,,,,,,,,,,,,,,,,,,,,,,,,,,,,,,,,,
,,,,,,,,,haps123,2024-04-02_16h50.59.437,board game,2021.1.2,MacIntel,59.95203837,,,,,,,,,0,1,4.653,0,2,2,9,1,gul_0_original.png,0,,,,,,,,,,,,,,,,,,,,,,,,,,,,,,,,,,,,,,,,,,,,,,,,,,,,,,,,
,,,,,,,,,haps123,2024-04-02_16h50.59.437,board game,2021.1.2,MacIntel,59.95203837,,,,,,,,,3,1,1.273,0,3,3,15,1,gul_3_original.png,3,,,,,,,,,,,,,,,,,,,,,,,,,,,,,,,,,,,,,,,,,,,,,,,,,,,,,,,,
,,,,,,,,,haps123,2024-04-02_16h50.59.437,board game,2021.1.2,MacIntel,59.95203837,,,,,,,,,0,1,1.438,0,4,4,0,1,orange_0_grey.png,0,,,,,,,,,,,,,,,,,,,,,,,,,,,,,,,,,,,,,,,,,,,,,,,,,,,,,,,,
,,,,,,,,,haps123,2024-04-02_16h50.59.437,board game,2021.1.2,MacIntel,59.95203837,,,,,,,,,1,1,1.496,0,5,5,10,1,gul_1_grey.png,1,,,,,,,,,,,,,,,,,,,,,,,,,,,,,,,,,,,,,,,,,,,,,,,,,,,,,,,,
,,,,,,,,,haps123,2024-04-02_16h50.59.437,board game,2021.1.2,MacIntel,59.95203837,,,,,,,,,2,1,1.021,0,6,6,13,1,gul_2_original.png,2,,,,,,,,,,,,,,,,,,,,,,,,,,,,,,,,,,,,,,,,,,,,,,,,,,,,,,,,
,,,,,,,,,haps123,2024-04-02_16h50.59.437,board game,2021.1.2,MacIntel,59.95203837,,,,,,,,,3,1,1.018,0,7,7,14,1,gul_3_grey.png,3,,,,,,,,,,,,,,,,,,,,,,,,,,,,,,,,,,,,,,,,,,,,,,,,,,,,,,,,
,,,,,,,,,haps123,2024-04-02_16h50.59.437,board game,2021.1.2,MacIntel,59.95203837,,,,,,,,,2,1,0.942,0,8,8,12,1,gul_2_grey.png,2,,,,,,,,,,,,,,,,,,,,,,,,,,,,,,,,,,,,,,,,,,,,,,,,,,,,,,,,
,,,,,,,,,haps123,2024-04-02_16h50.59.437,board game,2021.1.2,MacIntel,59.95203837,,,,,,,,,1,1,1.624,0,9,9,3,1,orange_1_original.png,1,,,,,,,,,,,,,,,,,,,,,,,,,,,,,,,,,,,,,,,,,,,,,,,,,,,,,,,,
,,,,,,,,,haps123,2024-04-02_16h50.59.437,board game,2021.1.2,MacIntel,59.95203837,,,,,,,,,3,1,1.055,0,10,10,7,1,orange_3_original.png,3,,,,,,,,,,,,,,,,,,,,,,,,,,,,,,,,,,,,,,,,,,,,,,,,,,,,,,,,
,,,,,,,,,haps123,2024-04-02_16h50.59.437,board game,2021.1.2,MacIntel,59.95203837,,,,,,,,,0,1,1.827,0,11,11,8,1,gul_0_grey.png,0,,,,,,,,,,,,,,,,,,,,,,,,,,,,,,,,,,,,,,,,,,,,,,,,,,,,,,,,
,,,,,,,,,haps123,2024-04-02_16h50.59.437,board game,2021.1.2,MacIntel,59.95203837,,,,,,,,,0,1,1.39,0,12,12,1,1,orange_0_original.png,0,,,,,,,,,,,,,,,,,,,,,,,,,,,,,,,,,,,,,,,,,,,,,,,,,,,,,,,,
,,,,,,,,,haps123,2024-04-02_16h50.59.437,board game,2021.1.2,MacIntel,59.95203837,,,,,,,,,2,1,1.113,0,13,13,5,1,orange_2_original.png,2,,,,,,,,,,,,,,,,,,,,,,,,,,,,,,,,,,,,,,,,,,,,,,,,,,,,,,,,
,,,,,,,,,haps123,2024-04-02_16h50.59.437,board game,2021.1.2,MacIntel,59.95203837,,,,,,,,,3,1,0.94,0,14,14,6,1,orange_3_grey.png,3,,,,,,,,,,,,,,,,,,,,,,,,,,,,,,,,,,,,,,,,,,,,,,,,,,,,,,,,
,,,,,,,,,haps123,2024-04-02_16h50.59.437,board game,2021.1.2,MacIntel,59.95203837,,,,,,,,,1,1,1.474,0,15,15,2,1,orange_1_grey.png,1,,,,,,,,,,,,,,,,,,,,,,,,,,,,,,,,,,,,,,,,,,,,,,,,,,,,,,,,
,,,,,,,,,haps123,2024-04-02_16h50.59.437,board game,2021.1.2,MacIntel,59.95203837,,,,,,,,,,,,,,,,,,,3,1,4.254,0,0,0,0,1,original_gulpink1.png,3,,,,,,,,,,,,,,,,,,,,,,,,,,,,,,,,,,,,,,,,,,,,,,
,,,,,,,,,haps123,2024-04-02_16h50.59.437,board game,2021.1.2,MacIntel,59.95203837,,,,,,,,,,,,,,,,,,,4,1,3.557,0,1,1,1,1,original_gulpink2.png,4,,,,,,,,,,,,,,,,,,,,,,,,,,,,,,,,,,,,,,,,,,,,,,
,,,,,,,,,haps123,2024-04-02_16h50.59.437,board game,2021.1.2,MacIntel,59.95203837,,,,,,,,,,,,,,,,,,,3,1,3.239,0,2,2,12,1,original_orange1.png,3,,,,,,,,,,,,,,,,,,,,,,,,,,,,,,,,,,,,,,,,,,,,,,
,,,,,,,,,haps123,2024-04-02_16h50.59.437,board game,2021.1.2,MacIntel,59.95203837,,,,,,,,,,,,,,,,,,,2,1,1.51,0,3,3,6,1,edited_blue1.png,2,,,,,,,,,,,,,,,,,,,,,,,,,,,,,,,,,,,,,,,,,,,,,,
,,,,,,,,,haps123,2024-04-02_16h50.59.437,board game,2021.1.2,MacIntel,59.95203837,,,,,,,,,,,,,,,,,,,2,1,3.007,0,4,4,9,1,original_green2.png,2,,,,,,,,,,,,,,,,,,,,,,,,,,,,,,,,,,,,,,,,,,,,,,
,,,,,,,,,haps123,2024-04-02_16h50.59.437,board game,2021.1.2,MacIntel,59.95203837,,,,,,,,,,,,,,,,,,,2,0,3.097,0,5,5,15,1,edited_orange2.png,1,,,,,,,,,,,,,,,,,,,,,,,,,,,,,,,,,,,,,,,,,,,,,,
,,,,,,,,,haps123,2024-04-02_16h50.59.437,board game,2021.1.2,MacIntel,59.95203837,,,,,,,,,,,,,,,,,,,3,1,3.358,0,6,6,2,1,edited_gulpink1.png,3,,,,,,,,,,,,,,,,,,,,,,,,,,,,,,,,,,,,,,,,,,,,,,
,,,,,,,,,haps123,2024-04-02_16h50.59.437,board game,2021.1.2,MacIntel,59.95203837,,,,,,,,,,,,,,,,,,,4,1,1.311,0,7,7,3,1,edited_gulpink2.png,4,,,,,,,,,,,,,,,,,,,,,,,,,,,,,,,,,,,,,,,,,,,,,,
,,,,,,,,,haps123,2024-04-02_16h50.59.437,board game,2021.1.2,MacIntel,59.95203837,,,,,,,,,,,,,,,,,,,2,1,2.008,0,8,8,11,1,edited_green2.png,2,,,,,,,,,,,,,,,,,,,,,,,,,,,,,,,,,,,,,,,,,,,,,,
,,,,,,,,,haps123,2024-04-02_16h50.59.437,board game,2021.1.2,MacIntel,59.95203837,,,,,,,,,,,,,,,,,,,3,1,2.071,0,9,9,8,1,original_green1.png,3,,,,,,,,,,,,,,,,,,,,,,,,,,,,,,,,,,,,,,,,,,,,,,
,,,,,,,,,haps123,2024-04-02_16h50.59.437,board game,2021.1.2,MacIntel,59.95203837,,,,,,,,,,,,,,,,,,,3,1,2.207,0,10,10,14,1,edited_orange1.png,3,,,,,,,,,,,,,,,,,,,,,,,,,,,,,,,,,,,,,,,,,,,,,,
,,,,,,,,,haps123,2024-04-02_16h50.59.437,board game,2021.1.2,MacIntel,59.95203837,,,,,,,,,,,,,,,,,,,1,1,2.481,0,11,11,13,1,original_orange2.png,1,,,,,,,,,,,,,,,,,,,,,,,,,,,,,,,,,,,,,,,,,,,,,,
,,,,,,,,,haps123,2024-04-02_16h50.59.437,board game,2021.1.2,MacIntel,59.95203837,,,,,,,,,,,,,,,,,,,4,1,2.544,0,12,12,7,1,edited_blue2.png,4,,,,,,,,,,,,,,,,,,,,,,,,,,,,,,,,,,,,,,,,,,,,,,
,,,,,,,,,haps123,2024-04-02_16h50.59.437,board game,2021.1.2,MacIntel,59.95203837,,,,,,,,,,,,,,,,,,,2,1,1.727,0,13,13,4,1,original_blue1.png,2,,,,,,,,,,,,,,,,,,,,,,,,,,,,,,,,,,,,,,,,,,,,,,
,,,,,,,,,haps123,2024-04-02_16h50.59.437,board game,2021.1.2,MacIntel,59.95203837,,,,,,,,,,,,,,,,,,,3,1,2.976,0,14,14,10,1,edited_green1.png,3,,,,,,,,,,,,,,,,,,,,,,,,,,,,,,,,,,,,,,,,,,,,,,
,,,,,,,,,haps123,2024-04-02_16h50.59.437,board game,2021.1.2,MacIntel,59.95203837,,,,,,,,,,,,,,,,,,,4,1,2.495,0,15,15,5,1,original_blue2.png,4,,,,,,,,,,,,,,,,,,,,,,,,,,,,,,,,,,,,,,,,,,,,,,
,,,,,,,,,haps123,2024-04-02_16h50.59.437,board game,2021.1.2,MacIntel,59.95203837,,,,,,,,,,,,,,,,,,,,,,,,,,,,,b,1,3.874,0,0,0,3,1,original_tokens_blues_b.png,b,,,,,,,,,,,,,,,,,,,,,,,,,,,,,,,,,,,,
,,,,,,,,,haps123,2024-04-02_16h50.59.437,board game,2021.1.2,MacIntel,59.95203837,,,,,,,,,,,,,,,,,,,,,,,,,,,,,m,1,2.492,0,1,1,1,1,original_tokens_blues_m.png,m,,,,,,,,,,,,,,,,,,,,,,,,,,,,,,,,,,,,
,,,,,,,,,haps123,2024-04-02_16h50.59.437,board game,2021.1.2,MacIntel,59.95203837,,,,,,,,,,,,,,,,,,,,,,,,,,,,,g,1,2.185,0,2,2,9,1,original_tokens_greens_g.png,g,,,,,,,,,,,,,,,,,,,,,,,,,,,,,,,,,,,,
,,,,,,,,,haps123,2024-04-02_16h50.59.437,board game,2021.1.2,MacIntel,59.95203837,,,,,,,,,,,,,,,,,,,,,,,,,,,,,a,1,2.435,0,3,3,6,1,original_tokens_greens_a.png,a,,,,,,,,,,,,,,,,,,,,,,,,,,,,,,,,,,,,
,,,,,,,,,haps123,2024-04-02_16h50.59.437,board game,2021.1.2,MacIntel,59.95203837,,,,,,,,,,,,,,,,,,,,,,,,,,,,,e,1,3.219,0,4,4,7,1,original_tokens_greens_e.png,e,,,,,,,,,,,,,,,,,,,,,,,,,,,,,,,,,,,,
,,,,,,,,,haps123,2024-04-02_16h50.59.437,board game,2021.1.2,MacIntel,59.95203837,,,,,,,,,,,,,,,,,,,,,,,,,,,,,o,1,2.573,0,5,5,4,1,original_tokens_blues_o.png,o,,,,,,,,,,,,,,,,,,,,,,,,,,,,,,,,,,,,
,,,,,,,,,haps123,2024-04-02_16h50.59.437,board game,2021.1.2,MacIntel,59.95203837,,,,,,,,,,,,,,,,,,,,,,,,,,,,,k,1,3.369,0,6,6,0,1,original_tokens_blues_k.png,k,,,,,,,,,,,,,,,,,,,,,,,,,,,,,,,,,,,,
,,,,,,,,,haps123,2024-04-02_16h50.59.437,board game,2021.1.2,MacIntel,59.95203837,,,,,,,,,,,,,,,,,,,,,,,,,,,,,n,1,3.034,0,7,7,8,1,original_tokens_greens_n.png,n,,,,,,,,,,,,,,,,,,,,,,,,,,,,,,,,,,,,
,,,,,,,,,haps123,2024-04-02_16h50.59.437,board game,2021.1.2,MacIntel,59.95203837,,,,,,,,,,,,,,,,,,,,,,,,,,,,,d,1,2,0,8,8,2,1,original_tokens_blues_d.png,d,,,,,,,,,,,,,,,,,,,,,,,,,,,,,,,,,,,,
,,,,,,,,,haps123,2024-04-02_16h50.59.437,board game,2021.1.2,MacIntel,59.95203837,,,,,,,,,,,,,,,,,,,,,,,,,,,,,h,1,2.054,0,9,9,5,1,original_tokens_greens_h.png,h,,,,,,,,,,,,,,,,,,,,,,,,,,,,,,,,,,,,
,,,,,,,,,haps123,2024-04-02_16h50.59.437,board game,2021.1.2,MacIntel,59.95203837,,,,,,,,,,,,,,,,,,,,,,,,,,,,,,,,,,,,,,d,,0,0,0,0,2,1,edited_tokens_blues_d.png,,,,,,,,,,,,,,,,,,,,,,,,,,,,
,,,,,,,,,haps123,2024-04-02_16h50.59.437,board game,2021.1.2,MacIntel,59.95203837,,,,,,,,,,,,,,,,,,,,,,,,,,,,,,,,,,,,,,m,,0,0,1,1,1,1,edited_tokens_blues_m.png,,,,,,,,,,,,,,,,,,,,,,,,,,,,
,,,,,,,,,haps123,2024-04-02_16h50.59.437,board game,2021.1.2,MacIntel,59.95203837,,,,,,,,,,,,,,,,,,,,,,,,,,,,,,,,,,,,,,n,,0,0,2,2,8,1,edited_tokens_greens_n.png,,,,,,,,,,,,,,,,,,,,,,,,,,,,
,,,,,,,,,haps123,2024-04-02_16h50.59.437,board game,2021.1.2,MacIntel,59.95203837,,,,,,,,,,,,,,,,,,,,,,,,,,,,,,,,,,,,,,h,,0,0,3,3,5,1,edited_tokens_greens_h.png,,,,,,,,,,,,,,,,,,,,,,,,,,,,
,,,,,,,,,haps123,2024-04-02_16h50.59.437,board game,2021.1.2,MacIntel,59.95203837,,,,,,,,,,,,,,,,,,,,,,,,,,,,,,,,,,,,,,a,,0,0,4,4,6,1,edited_tokens_greens_a.png,,,,,,,,,,,,,,,,,,,,,,,,,,,,
,,,,,,,,,haps123,2024-04-02_16h50.59.437,board game,2021.1.2,MacIntel,59.95203837,,,,,,,,,,,,,,,,,,,,,,,,,,,,,,,,,,,,,,b,,0,0,5,5,3,1,edited_tokens_blues_b.png,,,,,,,,,,,,,,,,,,,,,,,,,,,,
,,,,,,,,,haps123,2024-04-02_16h50.59.437,board game,2021.1.2,MacIntel,59.95203837,,,,,,,,,,,,,,,,,,,,,,,,,,,,,,,,,,,,,,e,,0,0,6,6,7,1,edited_tokens_greens_e.png,,,,,,,,,,,,,,,,,,,,,,,,,,,,
,,,,,,,,,haps123,2024-04-02_16h50.59.437,board game,2021.1.2,MacIntel,59.95203837,,,,,,,,,,,,,,,,,,,,,,,,,,,,,,,,,,,,,,k,,0,0,7,7,0,1,edited_tokens_blues_k.png,,,,,,,,,,,,,,,,,,,,,,,,,,,,
,,,,,,,,,haps123,2024-04-02_16h50.59.437,board game,2021.1.2,MacIntel,59.95203837,,,,,,,,,,,,,,,,,,,,,,,,,,,,,,,,,,,,,,g,,0,0,8,8,9,1,edited_tokens_greens_g.png,,,,,,,,,,,,,,,,,,,,,,,,,,,,
,,,,,,,,,haps123,2024-04-02_16h50.59.437,board game,2021.1.2,MacIntel,59.95203837,,,,,,,,,,,,,,,,,,,,,,,,,,,,,,,,,,,,,,o,,0,0,9,9,4,1,edited_tokens_blues_o.png,,,,,,,,,,,,,,,,,,,,,,,,,,,,
,,,,,,,,,haps123,2024-04-02_16h50.59.437,board game,2021.1.2,MacIntel,59.95203837,,,,,,,,,,,,,,,,,,,,,,,,,,,,,,,,,,,,,,,,,,,,,,,up,1,3.798,,0,0,0,8,1,gaze5_cue.png,up,,,,,,,,,,,,,,,,,
,,,,,,,,,haps123,2024-04-02_16h50.59.437,board game,2021.1.2,MacIntel,59.95203837,,,,,,,,,,,,,,,,,,,,,,,,,,,,,,,,,,,,,,,,,,,,,,,left,1,1.851,,0,1,1,7,1,gaze4_plain.png,left,,,,,,,,,,,,,,,,,
,,,,,,,,,haps123,2024-04-02_16h50.59.437,board game,2021.1.2,MacIntel,59.95203837,,,,,,,,,,,,,,,,,,,,,,,,,,,,,,,,,,,,,,,,,,,,,,,left,1,1.279,,0,2,2,3,1,gaze2_plain.png,left,,,,,,,,,,,,,,,,,
,,,,,,,,,haps123,2024-04-02_16h50.59.437,board game,2021.1.2,MacIntel,59.95203837,,,,,,,,,,,,,,,,,,,,,,,,,,,,,,,,,,,,,,,,,,,,,,,right,1,1.038,,0,3,3,11,1,gaze6_plain.png,right,,,,,,,,,,,,,,,,,
,,,,,,,,,haps123,2024-04-02_16h50.59.437,board game,2021.1.2,MacIntel,59.95203837,,,,,,,,,,,,,,,,,,,,,,,,,,,,,,,,,,,,,,,,,,,,,,,left,1,1.199,,0,4,4,1,1,gaze1_plain.png,left,,,,,,,,,,,,,,,,,
,,,,,,,,,haps123,2024-04-02_16h50.59.437,board game,2021.1.2,MacIntel,59.95203837,,,,,,,,,,,,,,,,,,,,,,,,,,,,,,,,,,,,,,,,,,,,,,,right,1,1.112,,0,5,5,12,1,gaze7_cue.png,right,,,,,,,,,,,,,,,,,
,,,,,,,,,haps123,2024-04-02_16h50.59.437,board game,2021.1.2,MacIntel,59.95203837,,,,,,,,,,,,,,,,,,,,,,,,,,,,,,,,,,,,,,,,,,,,,,,right,1,0.99,,0,6,6,4,1,gaze3_cue.png,right,,,,,,,,,,,,,,,,,
,,,,,,,,,haps123,2024-04-02_16h50.59.437,board game,2021.1.2,MacIntel,59.95203837,,,,,,,,,,,,,,,,,,,,,,,,,,,,,,,,,,,,,,,,,,,,,,,left,1,1.204,,0,7,7,2,1,gaze2_cue.png,left,,,,,,,,,,,,,,,,,
,,,,,,,,,haps123,2024-04-02_16h50.59.437,board game,2021.1.2,MacIntel,59.95203837,,,,,,,,,,,,,,,,,,,,,,,,,,,,,,,,,,,,,,,,,,,,,,,right,1,0.829,,0,8,8,5,1,gaze3_plain.png,right,,,,,,,,,,,,,,,,,
,,,,,,,,,haps123,2024-04-02_16h50.59.437,board game,2021.1.2,MacIntel,59.95203837,,,,,,,,,,,,,,,,,,,,,,,,,,,,,,,,,,,,,,,,,,,,,,,left,1,1.602,,0,9,9,0,1,gaze1_cue.png,left,,,,,,,,,,,,,,,,,
,,,,,,,,,haps123,2024-04-02_16h50.59.437,board game,2021.1.2,MacIntel,59.95203837,,,,,,,,,,,,,,,,,,,,,,,,,,,,,,,,,,,,,,,,,,,,,,,right,1,1.757,,0,10,10,10,1,gaze6_cue.png,right,,,,,,,,,,,,,,,,,
,,,,,,,,,haps123,2024-04-02_16h50.59.437,board game,2021.1.2,MacIntel,59.95203837,,,,,,,,,,,,,,,,,,,,,,,,,,,,,,,,,,,,,,,,,,,,,,,up,0,4.115,,0,11,11,13,1,gaze7_plain.png,right,,,,,,,,,,,,,,,,,
,,,,,,,,,haps123,2024-04-02_16h50.59.437,board game,2021.1.2,MacIntel,59.95203837,,,,,,,,,,,,,,,,,,,,,,,,,,,,,,,,,,,,,,,,,,,,,,,up,1,1.203,,0,12,12,9,1,gaze5_plain.png,up,,,,,,,,,,,,,,,,,
,,,,,,,,,haps123,2024-04-02_16h50.59.437,board game,2021.1.2,MacIntel,59.95203837,,,,,,,,,,,,,,,,,,,,,,,,,,,,,,,,,,,,,,,,,,,,,,,left,1,1.241,,0,13,13,6,1,gaze4_cue.png,left,,,,,,,,,,,,,,,,,
,,,,,,,,,haps123,2024-04-02_16h50.59.437,board game,2021.1.2,MacIntel,59.95203837,,,,,,,,,,,,,,,,,,,,,,,,,,,,,,,,,,,,,,,,,,,,,,,,,,,,,,,,,,e,1,4.704,0,0,0,4,1,landscape_color_e.png,e,,,,,,,
,,,,,,,,,haps123,2024-04-02_16h50.59.437,board game,2021.1.2,MacIntel,59.95203837,,,,,,,,,,,,,,,,,,,,,,,,,,,,,,,,,,,,,,,,,,,,,,,,,,,,,,,,,,f,1,1.943,0,1,1,5,1,landscape_color_f.png,f,,,,,,,
,,,,,,,,,haps123,2024-04-02_16h50.59.437,board game,2021.1.2,MacIntel,59.95203837,,,,,,,,,,,,,,,,,,,,,,,,,,,,,,,,,,,,,,,,,,,,,,,,,,,,,,,,,,d,1,2.999,0,2,2,3,1,landscape_color_d.png,d,,,,,,,
,,,,,,,,,haps123,2024-04-02_16h50.59.437,board game,2021.1.2,MacIntel,59.95203837,,,,,,,,,,,,,,,,,,,,,,,,,,,,,,,,,,,,,,,,,,,,,,,,,,,,,,,,,,c,1,1.739,0,3,3,2,1,landscape_color_c.png,c,,,,,,,
,,,,,,,,,haps123,2024-04-02_16h50.59.437,board game,2021.1.2,MacIntel,59.95203837,,,,,,,,,,,,,,,,,,,,,,,,,,,,,,,,,,,,,,,,,,,,,,,,,,,,,,,,,,b,1,1.56,0,4,4,1,1,landscape_color_b.png,b,,,,,,,
,,,,,,,,,haps123,2024-04-02_16h50.59.437,board game,2021.1.2,MacIntel,59.95203837,,,,,,,,,,,,,,,,,,,,,,,,,,,,,,,,,,,,,,,,,,,,,,,,,,,,,,,,,,a,1,1.37,0,5,5,0,1,landscape_color_a.png,a,,,,,,,
,,,,,,,,,haps123,2024-04-02_16h50.59.437,board game,2021.1.2,MacIntel,59.95203837,,,,,,,,,,,,,,,,,,,,,,,,,,,,,,,,,,,,,,,,,,,,,,,,,,,,,,,,,,,,,,,,,,landscape_black_e.png,e,,0,0,0,0,4,1
,,,,,,,,,haps123,2024-04-02_16h50.59.437,board game,2021.1.2,MacIntel,59.95203837,,,,,,,,,,,,,,,,,,,,,,,,,,,,,,,,,,,,,,,,,,,,,,,,,,,,,,,,,,,,,,,,,,landscape_black_a.png,a,,0,0,1,1,0,1
,,,,,,,,,haps123,2024-04-02_16h50.59.437,board game,2021.1.2,MacIntel,59.95203837,,,,,,,,,,,,,,,,,,,,,,,,,,,,,,,,,,,,,,,,,,,,,,,,,,,,,,,,,,,,,,,,,,landscape_black_f.png,f,,0,0,2,2,5,1
,,,,,,,,,haps123,2024-04-02_16h50.59.437,board game,2021.1.2,MacIntel,59.95203837,,,,,,,,,,,,,,,,,,,,,,,,,,,,,,,,,,,,,,,,,,,,,,,,,,,,,,,,,,,,,,,,,,landscape_black_c.png,c,,0,0,3,3,2,1
,,,,,,,,,haps123,2024-04-02_16h50.59.437,board game,2021.1.2,MacIntel,59.95203837,,,,,,,,,,,,,,,,,,,,,,,,,,,,,,,,,,,,,,,,,,,,,,,,,,,,,,,,,,,,,,,,,,landscape_black_d.png,d,,0,0,4,4,3,1
,,,,,,,,,haps123,2024-04-02_16h50.59.437,board game,2021.1.2,MacIntel,59.95203837,,,,,,,,,,,,,,,,,,,,,,,,,,,,,,,,,,,,,,,,,,,,,,,,,,,,,,,,,,,,,,,,,,landscape_black_b.png,b,,0,0,5,5,1,1
