original_character_resp.keys,original_character_resp.rt,trials_character_original.thisRepN,trials_character_original.thisTrialN,trials_character_original.thisN,trials_character_original.thisIndex,trials_character_original.ran,original_character_options,correct_character_options,id,date,expName,psychopyVersion,OS,frameRate,edited_character_resp.keys,edited_character_resp.corr,trials_character_edited.thisRepN,trials_character_edited.thisTrialN,trials_character_edited.thisN,trials_character_edited.thisIndex,trials_character_edited.ran,edited_character_options,seed_response.keys,seed_response.corr,seed_response.rt,trials_seeds.thisRepN,trials_seeds.thisTrialN,trials_seeds.thisN,trials_seeds.thisIndex,trials_seeds.ran,seed_options,correctSeednumber,tree_response.keys,tree_response.corr,tree_response.rt,trials_tree.thisRepN,trials_tree.thisTrialN,trials_tree.thisN,trials_tree.thisIndex,trials_tree.ran,tree_options,correctTreenumber,token_original_resp.keys,token_original_resp.corr,token_original_resp.rt,trials_tokens_original.thisRepN,trials_tokens_original.thisTrialN,trials_tokens_original.thisN,trials_tokens_original.thisIndex,trials_tokens_original.ran,original_token_options,correct_token_options,token_edited_resp.keys,token_edited_resp.corr,trials_tokens_edited.thisRepN,trials_tokens_edited.thisTrialN,trials_tokens_edited.thisN,trials_tokens_edited.thisIndex,trials_tokens_edited.ran,edited_token_options,gaze_response.keys,gaze_response.corr,gaze_response.rt,key_resp_6.keys,trials_gaze.thisRepN,trials_gaze.thisTrialN,trials_gaze.thisN,trials_gaze.thisIndex,trials_gaze.ran,options,correctGazeanswer,landscapeA_resp.keys,landscapeA_resp.corr,landscapeA_resp.rt,trials_sight_color.thisRepN,trials_sight_color.thisTrialN,trials_sight_color.thisN,trials_sight_color.thisIndex,trials_sight_color.ran,landscape_options,correct_landscape_options,landscapeB_resp.keys,landscapeB_resp.corr,trials_sight_black.thisRepN,trials_sight_black.thisTrialN,trials_sight_black.thisN,trials_sight_black.thisIndex,trials_sight_black.ran
a,8.9611,0,0,0,2,1,original_poet.png,c,asdvknaæksjndvæjn,2024-04-03_16h39.21.690,board game,2021.1.2,MacIntel,62.11180124,,,,,,,,,,,,,,,,,,,,,,,,,,,,,,,,,,,,,,,,,,,,,,,,,,,,,,,,,,,,,,,,,,,,,,,,,,
d,3.6185,0,1,1,3,1,original_architect.png,d,asdvknaæksjndvæjn,2024-04-03_16h39.21.690,board game,2021.1.2,MacIntel,62.11180124,,,,,,,,,,,,,,,,,,,,,,,,,,,,,,,,,,,,,,,,,,,,,,,,,,,,,,,,,,,,,,,,,,,,,,,,,,
a,2.1028,0,2,2,0,1,original_monk.png,a,asdvknaæksjndvæjn,2024-04-03_16h39.21.690,board game,2021.1.2,MacIntel,62.11180124,,,,,,,,,,,,,,,,,,,,,,,,,,,,,,,,,,,,,,,,,,,,,,,,,,,,,,,,,,,,,,,,,,,,,,,,,,
b,4.1839,0,3,3,1,1,original_hermit.png,b,asdvknaæksjndvæjn,2024-04-03_16h39.21.690,board game,2021.1.2,MacIntel,62.11180124,,,,,,,,,,,,,,,,,,,,,,,,,,,,,,,,,,,,,,,,,,,,,,,,,,,,,,,,,,,,,,,,,,,,,,,,,,
,,,,,,,,b,asdvknaæksjndvæjn,2024-04-03_16h39.21.690,board game,2021.1.2,MacIntel,62.11180124,,0,0,0,0,1,1,edited_hermit.png,,,,,,,,,,,,,,,,,,,,,,,,,,,,,,,,,,,,,,,,,,,,,,,,,,,,,,,,,,,,,,,,,,
,,,,,,,,d,asdvknaæksjndvæjn,2024-04-03_16h39.21.690,board game,2021.1.2,MacIntel,62.11180124,,0,0,1,1,3,1,edited_architect.png,,,,,,,,,,,,,,,,,,,,,,,,,,,,,,,,,,,,,,,,,,,,,,,,,,,,,,,,,,,,,,,,,,
,,,,,,,,a,asdvknaæksjndvæjn,2024-04-03_16h39.21.690,board game,2021.1.2,MacIntel,62.11180124,,0,0,2,2,0,1,edited_monk.png,,,,,,,,,,,,,,,,,,,,,,,,,,,,,,,,,,,,,,,,,,,,,,,,,,,,,,,,,,,,,,,,,,
,,,,,,,,c,asdvknaæksjndvæjn,2024-04-03_16h39.21.690,board game,2021.1.2,MacIntel,62.11180124,,0,0,3,3,2,1,edited_poet.png,,,,,,,,,,,,,,,,,,,,,,,,,,,,,,,,,,,,,,,,,,,,,,,,,,,,,,,,,,,,,,,,,,
,,,,,,,,,asdvknaæksjndvæjn,2024-04-03_16h39.21.690,board game,2021.1.2,MacIntel,62.11180124,,,,,,,,,4,0,14.1977,0,0,0,8,1,gul_0_grey.png,0,,,,,,,,,,,,,,,,,,,,,,,,,,,,,,,,,,,,,,,,,,,,,,,,,,,,,,,,
,,,,,,,,,asdvknaæksjndvæjn,2024-04-03_16h39.21.690,board game,2021.1.2,MacIntel,62.11180124,,,,,,,,,3,0,3.1067,0,1,1,9,1,gul_0_original.png,0,,,,,,,,,,,,,,,,,,,,,,,,,,,,,,,,,,,,,,,,,,,,,,,,,,,,,,,,
,,,,,,,,,asdvknaæksjndvæjn,2024-04-03_16h39.21.690,board game,2021.1.2,MacIntel,62.11180124,,,,,,,,,3,1,1.7027,0,2,2,15,1,gul_3_original.png,3,,,,,,,,,,,,,,,,,,,,,,,,,,,,,,,,,,,,,,,,,,,,,,,,,,,,,,,,
,,,,,,,,,asdvknaæksjndvæjn,2024-04-03_16h39.21.690,board game,2021.1.2,MacIntel,62.11180124,,,,,,,,,2,1,0.9452,0,3,3,13,1,gul_2_original.png,2,,,,,,,,,,,,,,,,,,,,,,,,,,,,,,,,,,,,,,,,,,,,,,,,,,,,,,,,
,,,,,,,,,asdvknaæksjndvæjn,2024-04-03_16h39.21.690,board game,2021.1.2,MacIntel,62.11180124,,,,,,,,,3,1,1.0046,0,4,4,14,1,gul_3_grey.png,3,,,,,,,,,,,,,,,,,,,,,,,,,,,,,,,,,,,,,,,,,,,,,,,,,,,,,,,,
,,,,,,,,,asdvknaæksjndvæjn,2024-04-03_16h39.21.690,board game,2021.1.2,MacIntel,62.11180124,,,,,,,,,3,1,3.3598,0,5,5,6,1,orange_3_grey.png,3,,,,,,,,,,,,,,,,,,,,,,,,,,,,,,,,,,,,,,,,,,,,,,,,,,,,,,,,
,,,,,,,,,asdvknaæksjndvæjn,2024-04-03_16h39.21.690,board game,2021.1.2,MacIntel,62.11180124,,,,,,,,,2,1,1.0359,0,6,6,12,1,gul_2_grey.png,2,,,,,,,,,,,,,,,,,,,,,,,,,,,,,,,,,,,,,,,,,,,,,,,,,,,,,,,,
,,,,,,,,,asdvknaæksjndvæjn,2024-04-03_16h39.21.690,board game,2021.1.2,MacIntel,62.11180124,,,,,,,,,3,1,1.2095,0,7,7,7,1,orange_3_original.png,3,,,,,,,,,,,,,,,,,,,,,,,,,,,,,,,,,,,,,,,,,,,,,,,,,,,,,,,,
,,,,,,,,,asdvknaæksjndvæjn,2024-04-03_16h39.21.690,board game,2021.1.2,MacIntel,62.11180124,,,,,,,,,2,1,0.984,0,8,8,5,1,orange_2_original.png,2,,,,,,,,,,,,,,,,,,,,,,,,,,,,,,,,,,,,,,,,,,,,,,,,,,,,,,,,
,,,,,,,,,asdvknaæksjndvæjn,2024-04-03_16h39.21.690,board game,2021.1.2,MacIntel,62.11180124,,,,,,,,,1,1,0.9438,0,9,9,3,1,orange_1_original.png,1,,,,,,,,,,,,,,,,,,,,,,,,,,,,,,,,,,,,,,,,,,,,,,,,,,,,,,,,
,,,,,,,,,asdvknaæksjndvæjn,2024-04-03_16h39.21.690,board game,2021.1.2,MacIntel,62.11180124,,,,,,,,,1,0,4.5531,0,10,10,0,1,orange_0_grey.png,0,,,,,,,,,,,,,,,,,,,,,,,,,,,,,,,,,,,,,,,,,,,,,,,,,,,,,,,,
,,,,,,,,,asdvknaæksjndvæjn,2024-04-03_16h39.21.690,board game,2021.1.2,MacIntel,62.11180124,,,,,,,,,1,1,1.6381,0,11,11,11,1,gul_1_original.png,1,,,,,,,,,,,,,,,,,,,,,,,,,,,,,,,,,,,,,,,,,,,,,,,,,,,,,,,,
,,,,,,,,,asdvknaæksjndvæjn,2024-04-03_16h39.21.690,board game,2021.1.2,MacIntel,62.11180124,,,,,,,,,2,1,1.0195,0,12,12,4,1,orange_2_grey.png,2,,,,,,,,,,,,,,,,,,,,,,,,,,,,,,,,,,,,,,,,,,,,,,,,,,,,,,,,
,,,,,,,,,asdvknaæksjndvæjn,2024-04-03_16h39.21.690,board game,2021.1.2,MacIntel,62.11180124,,,,,,,,,2,0,4.5771,0,13,13,1,1,orange_0_original.png,0,,,,,,,,,,,,,,,,,,,,,,,,,,,,,,,,,,,,,,,,,,,,,,,,,,,,,,,,
,,,,,,,,,asdvknaæksjndvæjn,2024-04-03_16h39.21.690,board game,2021.1.2,MacIntel,62.11180124,,,,,,,,,1,1,1.001,0,14,14,10,1,gul_1_grey.png,1,,,,,,,,,,,,,,,,,,,,,,,,,,,,,,,,,,,,,,,,,,,,,,,,,,,,,,,,
,,,,,,,,,asdvknaæksjndvæjn,2024-04-03_16h39.21.690,board game,2021.1.2,MacIntel,62.11180124,,,,,,,,,1,1,1.4512,0,15,15,2,1,orange_1_grey.png,1,,,,,,,,,,,,,,,,,,,,,,,,,,,,,,,,,,,,,,,,,,,,,,,,,,,,,,,,
,,,,,,,,,asdvknaæksjndvæjn,2024-04-03_16h39.21.690,board game,2021.1.2,MacIntel,62.11180124,,,,,,,,,,,,,,,,,,,3,1,6.376,0,0,0,2,1,edited_gulpink1.png,3,,,,,,,,,,,,,,,,,,,,,,,,,,,,,,,,,,,,,,,,,,,,,,
,,,,,,,,,asdvknaæksjndvæjn,2024-04-03_16h39.21.690,board game,2021.1.2,MacIntel,62.11180124,,,,,,,,,,,,,,,,,,,2,0,2.8294,0,1,1,15,1,edited_orange2.png,1,,,,,,,,,,,,,,,,,,,,,,,,,,,,,,,,,,,,,,,,,,,,,,
,,,,,,,,,asdvknaæksjndvæjn,2024-04-03_16h39.21.690,board game,2021.1.2,MacIntel,62.11180124,,,,,,,,,,,,,,,,,,,2,1,3.4776,0,2,2,11,1,edited_green2.png,2,,,,,,,,,,,,,,,,,,,,,,,,,,,,,,,,,,,,,,,,,,,,,,
,,,,,,,,,asdvknaæksjndvæjn,2024-04-03_16h39.21.690,board game,2021.1.2,MacIntel,62.11180124,,,,,,,,,,,,,,,,,,,2,1,2.7412,0,3,3,4,1,original_blue1.png,2,,,,,,,,,,,,,,,,,,,,,,,,,,,,,,,,,,,,,,,,,,,,,,
,,,,,,,,,asdvknaæksjndvæjn,2024-04-03_16h39.21.690,board game,2021.1.2,MacIntel,62.11180124,,,,,,,,,,,,,,,,,,,3,1,3.4748,0,4,4,8,1,original_green1.png,3,,,,,,,,,,,,,,,,,,,,,,,,,,,,,,,,,,,,,,,,,,,,,,
,,,,,,,,,asdvknaæksjndvæjn,2024-04-03_16h39.21.690,board game,2021.1.2,MacIntel,62.11180124,,,,,,,,,,,,,,,,,,,3,1,4.27,0,5,5,10,1,edited_green1.png,3,,,,,,,,,,,,,,,,,,,,,,,,,,,,,,,,,,,,,,,,,,,,,,
,,,,,,,,,asdvknaæksjndvæjn,2024-04-03_16h39.21.690,board game,2021.1.2,MacIntel,62.11180124,,,,,,,,,,,,,,,,,,,3,1,4.7641,0,6,6,12,1,original_orange1.png,3,,,,,,,,,,,,,,,,,,,,,,,,,,,,,,,,,,,,,,,,,,,,,,
,,,,,,,,,asdvknaæksjndvæjn,2024-04-03_16h39.21.690,board game,2021.1.2,MacIntel,62.11180124,,,,,,,,,,,,,,,,,,,2,1,3.033,0,7,7,9,1,original_green2.png,2,,,,,,,,,,,,,,,,,,,,,,,,,,,,,,,,,,,,,,,,,,,,,,
,,,,,,,,,asdvknaæksjndvæjn,2024-04-03_16h39.21.690,board game,2021.1.2,MacIntel,62.11180124,,,,,,,,,,,,,,,,,,,4,1,4.8313,0,8,8,5,1,original_blue2.png,4,,,,,,,,,,,,,,,,,,,,,,,,,,,,,,,,,,,,,,,,,,,,,,
,,,,,,,,,asdvknaæksjndvæjn,2024-04-03_16h39.21.690,board game,2021.1.2,MacIntel,62.11180124,,,,,,,,,,,,,,,,,,,4,1,4.3575,0,9,9,1,1,original_gulpink2.png,4,,,,,,,,,,,,,,,,,,,,,,,,,,,,,,,,,,,,,,,,,,,,,,
,,,,,,,,,asdvknaæksjndvæjn,2024-04-03_16h39.21.690,board game,2021.1.2,MacIntel,62.11180124,,,,,,,,,,,,,,,,,,,3,1,2.0175,0,10,10,0,1,original_gulpink1.png,3,,,,,,,,,,,,,,,,,,,,,,,,,,,,,,,,,,,,,,,,,,,,,,
,,,,,,,,,asdvknaæksjndvæjn,2024-04-03_16h39.21.690,board game,2021.1.2,MacIntel,62.11180124,,,,,,,,,,,,,,,,,,,2,1,2.9743,0,11,11,6,1,edited_blue1.png,2,,,,,,,,,,,,,,,,,,,,,,,,,,,,,,,,,,,,,,,,,,,,,,
,,,,,,,,,asdvknaæksjndvæjn,2024-04-03_16h39.21.690,board game,2021.1.2,MacIntel,62.11180124,,,,,,,,,,,,,,,,,,,4,1,1.579,0,12,12,3,1,edited_gulpink2.png,4,,,,,,,,,,,,,,,,,,,,,,,,,,,,,,,,,,,,,,,,,,,,,,
,,,,,,,,,asdvknaæksjndvæjn,2024-04-03_16h39.21.690,board game,2021.1.2,MacIntel,62.11180124,,,,,,,,,,,,,,,,,,,4,1,3.6528,0,13,13,7,1,edited_blue2.png,4,,,,,,,,,,,,,,,,,,,,,,,,,,,,,,,,,,,,,,,,,,,,,,
,,,,,,,,,asdvknaæksjndvæjn,2024-04-03_16h39.21.690,board game,2021.1.2,MacIntel,62.11180124,,,,,,,,,,,,,,,,,,,3,1,2.6852,0,14,14,14,1,edited_orange1.png,3,,,,,,,,,,,,,,,,,,,,,,,,,,,,,,,,,,,,,,,,,,,,,,
,,,,,,,,,asdvknaæksjndvæjn,2024-04-03_16h39.21.690,board game,2021.1.2,MacIntel,62.11180124,,,,,,,,,,,,,,,,,,,1,1,2.3815,0,15,15,13,1,original_orange2.png,1,,,,,,,,,,,,,,,,,,,,,,,,,,,,,,,,,,,,,,,,,,,,,,
,,,,,,,,,asdvknaæksjndvæjn,2024-04-03_16h39.21.690,board game,2021.1.2,MacIntel,62.11180124,,,,,,,,,,,,,,,,,,,,,,,,,,,,,m,1,3.8075,0,0,0,1,1,original_tokens_blues_m.png,m,,,,,,,,,,,,,,,,,,,,,,,,,,,,,,,,,,,,
,,,,,,,,,asdvknaæksjndvæjn,2024-04-03_16h39.21.690,board game,2021.1.2,MacIntel,62.11180124,,,,,,,,,,,,,,,,,,,,,,,,,,,,,d,0,4.6901,0,1,1,5,1,original_tokens_greens_h.png,h,,,,,,,,,,,,,,,,,,,,,,,,,,,,,,,,,,,,
,,,,,,,,,asdvknaæksjndvæjn,2024-04-03_16h39.21.690,board game,2021.1.2,MacIntel,62.11180124,,,,,,,,,,,,,,,,,,,,,,,,,,,,,g,1,2.9329,0,2,2,9,1,original_tokens_greens_g.png,g,,,,,,,,,,,,,,,,,,,,,,,,,,,,,,,,,,,,
,,,,,,,,,asdvknaæksjndvæjn,2024-04-03_16h39.21.690,board game,2021.1.2,MacIntel,62.11180124,,,,,,,,,,,,,,,,,,,,,,,,,,,,,k,1,3.3608,0,3,3,0,1,original_tokens_blues_k.png,k,,,,,,,,,,,,,,,,,,,,,,,,,,,,,,,,,,,,
,,,,,,,,,asdvknaæksjndvæjn,2024-04-03_16h39.21.690,board game,2021.1.2,MacIntel,62.11180124,,,,,,,,,,,,,,,,,,,,,,,,,,,,,b,1,2.514,0,4,4,3,1,original_tokens_blues_b.png,b,,,,,,,,,,,,,,,,,,,,,,,,,,,,,,,,,,,,
,,,,,,,,,asdvknaæksjndvæjn,2024-04-03_16h39.21.690,board game,2021.1.2,MacIntel,62.11180124,,,,,,,,,,,,,,,,,,,,,,,,,,,,,d,1,4.1231,0,5,5,2,1,original_tokens_blues_d.png,d,,,,,,,,,,,,,,,,,,,,,,,,,,,,,,,,,,,,
,,,,,,,,,asdvknaæksjndvæjn,2024-04-03_16h39.21.690,board game,2021.1.2,MacIntel,62.11180124,,,,,,,,,,,,,,,,,,,,,,,,,,,,,e,1,2.6682,0,6,6,7,1,original_tokens_greens_e.png,e,,,,,,,,,,,,,,,,,,,,,,,,,,,,,,,,,,,,
,,,,,,,,,asdvknaæksjndvæjn,2024-04-03_16h39.21.690,board game,2021.1.2,MacIntel,62.11180124,,,,,,,,,,,,,,,,,,,,,,,,,,,,,o,1,3.1861,0,7,7,4,1,original_tokens_blues_o.png,o,,,,,,,,,,,,,,,,,,,,,,,,,,,,,,,,,,,,
,,,,,,,,,asdvknaæksjndvæjn,2024-04-03_16h39.21.690,board game,2021.1.2,MacIntel,62.11180124,,,,,,,,,,,,,,,,,,,,,,,,,,,,,n,1,1.7751,0,8,8,8,1,original_tokens_greens_n.png,n,,,,,,,,,,,,,,,,,,,,,,,,,,,,,,,,,,,,
,,,,,,,,,asdvknaæksjndvæjn,2024-04-03_16h39.21.690,board game,2021.1.2,MacIntel,62.11180124,,,,,,,,,,,,,,,,,,,,,,,,,,,,,a,1,2.6055,0,9,9,6,1,original_tokens_greens_a.png,a,,,,,,,,,,,,,,,,,,,,,,,,,,,,,,,,,,,,
,,,,,,,,,asdvknaæksjndvæjn,2024-04-03_16h39.21.690,board game,2021.1.2,MacIntel,62.11180124,,,,,,,,,,,,,,,,,,,,,,,,,,,,,,,,,,,,,,m,,0,0,0,0,1,1,edited_tokens_blues_m.png,,,,,,,,,,,,,,,,,,,,,,,,,,,,
,,,,,,,,,asdvknaæksjndvæjn,2024-04-03_16h39.21.690,board game,2021.1.2,MacIntel,62.11180124,,,,,,,,,,,,,,,,,,,,,,,,,,,,,,,,,,,,,,g,,0,0,1,1,9,1,edited_tokens_greens_g.png,,,,,,,,,,,,,,,,,,,,,,,,,,,,
,,,,,,,,,asdvknaæksjndvæjn,2024-04-03_16h39.21.690,board game,2021.1.2,MacIntel,62.11180124,,,,,,,,,,,,,,,,,,,,,,,,,,,,,,,,,,,,,,a,,0,0,2,2,6,1,edited_tokens_greens_a.png,,,,,,,,,,,,,,,,,,,,,,,,,,,,
,,,,,,,,,asdvknaæksjndvæjn,2024-04-03_16h39.21.690,board game,2021.1.2,MacIntel,62.11180124,,,,,,,,,,,,,,,,,,,,,,,,,,,,,,,,,,,,,,d,,0,0,3,3,2,1,edited_tokens_blues_d.png,,,,,,,,,,,,,,,,,,,,,,,,,,,,
,,,,,,,,,asdvknaæksjndvæjn,2024-04-03_16h39.21.690,board game,2021.1.2,MacIntel,62.11180124,,,,,,,,,,,,,,,,,,,,,,,,,,,,,,,,,,,,,,n,,0,0,4,4,8,1,edited_tokens_greens_n.png,,,,,,,,,,,,,,,,,,,,,,,,,,,,
,,,,,,,,,asdvknaæksjndvæjn,2024-04-03_16h39.21.690,board game,2021.1.2,MacIntel,62.11180124,,,,,,,,,,,,,,,,,,,,,,,,,,,,,,,,,,,,,,b,,0,0,5,5,3,1,edited_tokens_blues_b.png,,,,,,,,,,,,,,,,,,,,,,,,,,,,
,,,,,,,,,asdvknaæksjndvæjn,2024-04-03_16h39.21.690,board game,2021.1.2,MacIntel,62.11180124,,,,,,,,,,,,,,,,,,,,,,,,,,,,,,,,,,,,,,e,,0,0,6,6,7,1,edited_tokens_greens_e.png,,,,,,,,,,,,,,,,,,,,,,,,,,,,
,,,,,,,,,asdvknaæksjndvæjn,2024-04-03_16h39.21.690,board game,2021.1.2,MacIntel,62.11180124,,,,,,,,,,,,,,,,,,,,,,,,,,,,,,,,,,,,,,k,,0,0,7,7,0,1,edited_tokens_blues_k.png,,,,,,,,,,,,,,,,,,,,,,,,,,,,
,,,,,,,,,asdvknaæksjndvæjn,2024-04-03_16h39.21.690,board game,2021.1.2,MacIntel,62.11180124,,,,,,,,,,,,,,,,,,,,,,,,,,,,,,,,,,,,,,o,,0,0,8,8,4,1,edited_tokens_blues_o.png,,,,,,,,,,,,,,,,,,,,,,,,,,,,
,,,,,,,,,asdvknaæksjndvæjn,2024-04-03_16h39.21.690,board game,2021.1.2,MacIntel,62.11180124,,,,,,,,,,,,,,,,,,,,,,,,,,,,,,,,,,,,,,h,,0,0,9,9,5,1,edited_tokens_greens_h.png,,,,,,,,,,,,,,,,,,,,,,,,,,,,
,,,,,,,,,asdvknaæksjndvæjn,2024-04-03_16h39.21.690,board game,2021.1.2,MacIntel,62.11180124,,,,,,,,,,,,,,,,,,,,,,,,,,,,,,,,,,,,,,,,,,,,,,,right,1,0.8698,,0,0,0,10,1,gaze6_cue.png,right,,,,,,,,,,,,,,,,,
,,,,,,,,,asdvknaæksjndvæjn,2024-04-03_16h39.21.690,board game,2021.1.2,MacIntel,62.11180124,,,,,,,,,,,,,,,,,,,,,,,,,,,,,,,,,,,,,,,,,,,,,,,left,1,0.9077,,0,1,1,7,1,gaze4_plain.png,left,,,,,,,,,,,,,,,,,
,,,,,,,,,asdvknaæksjndvæjn,2024-04-03_16h39.21.690,board game,2021.1.2,MacIntel,62.11180124,,,,,,,,,,,,,,,,,,,,,,,,,,,,,,,,,,,,,,,,,,,,,,,left,1,0.9395,,0,2,2,0,1,gaze1_cue.png,left,,,,,,,,,,,,,,,,,
,,,,,,,,,asdvknaæksjndvæjn,2024-04-03_16h39.21.690,board game,2021.1.2,MacIntel,62.11180124,,,,,,,,,,,,,,,,,,,,,,,,,,,,,,,,,,,,,,,,,,,,,,,left,1,0.8407,,0,3,3,6,1,gaze4_cue.png,left,,,,,,,,,,,,,,,,,
,,,,,,,,,asdvknaæksjndvæjn,2024-04-03_16h39.21.690,board game,2021.1.2,MacIntel,62.11180124,,,,,,,,,,,,,,,,,,,,,,,,,,,,,,,,,,,,,,,,,,,,,,,up,0,2.0154,,0,4,4,4,1,gaze3_cue.png,right,,,,,,,,,,,,,,,,,
,,,,,,,,,asdvknaæksjndvæjn,2024-04-03_16h39.21.690,board game,2021.1.2,MacIntel,62.11180124,,,,,,,,,,,,,,,,,,,,,,,,,,,,,,,,,,,,,,,,,,,,,,,left,1,0.8602,,0,5,5,2,1,gaze2_cue.png,left,,,,,,,,,,,,,,,,,
,,,,,,,,,asdvknaæksjndvæjn,2024-04-03_16h39.21.690,board game,2021.1.2,MacIntel,62.11180124,,,,,,,,,,,,,,,,,,,,,,,,,,,,,,,,,,,,,,,,,,,,,,,right,1,0.829,,0,6,6,12,1,gaze7_cue.png,right,,,,,,,,,,,,,,,,,
,,,,,,,,,asdvknaæksjndvæjn,2024-04-03_16h39.21.690,board game,2021.1.2,MacIntel,62.11180124,,,,,,,,,,,,,,,,,,,,,,,,,,,,,,,,,,,,,,,,,,,,,,,right,1,0.6287,,0,7,7,13,1,gaze7_plain.png,right,,,,,,,,,,,,,,,,,
,,,,,,,,,asdvknaæksjndvæjn,2024-04-03_16h39.21.690,board game,2021.1.2,MacIntel,62.11180124,,,,,,,,,,,,,,,,,,,,,,,,,,,,,,,,,,,,,,,,,,,,,,,right,1,0.8577,,0,8,8,11,1,gaze6_plain.png,right,,,,,,,,,,,,,,,,,
,,,,,,,,,asdvknaæksjndvæjn,2024-04-03_16h39.21.690,board game,2021.1.2,MacIntel,62.11180124,,,,,,,,,,,,,,,,,,,,,,,,,,,,,,,,,,,,,,,,,,,,,,,up,1,0.8219,,0,9,9,8,1,gaze5_cue.png,up,,,,,,,,,,,,,,,,,
,,,,,,,,,asdvknaæksjndvæjn,2024-04-03_16h39.21.690,board game,2021.1.2,MacIntel,62.11180124,,,,,,,,,,,,,,,,,,,,,,,,,,,,,,,,,,,,,,,,,,,,,,,left,1,0.9028,,0,10,10,1,1,gaze1_plain.png,left,,,,,,,,,,,,,,,,,
,,,,,,,,,asdvknaæksjndvæjn,2024-04-03_16h39.21.690,board game,2021.1.2,MacIntel,62.11180124,,,,,,,,,,,,,,,,,,,,,,,,,,,,,,,,,,,,,,,,,,,,,,,up,1,0.794,,0,11,11,9,1,gaze5_plain.png,up,,,,,,,,,,,,,,,,,
,,,,,,,,,asdvknaæksjndvæjn,2024-04-03_16h39.21.690,board game,2021.1.2,MacIntel,62.11180124,,,,,,,,,,,,,,,,,,,,,,,,,,,,,,,,,,,,,,,,,,,,,,,down,0,2.9019,,0,12,12,3,1,gaze2_plain.png,left,,,,,,,,,,,,,,,,,
,,,,,,,,,asdvknaæksjndvæjn,2024-04-03_16h39.21.690,board game,2021.1.2,MacIntel,62.11180124,,,,,,,,,,,,,,,,,,,,,,,,,,,,,,,,,,,,,,,,,,,,,,,right,1,1.1574,,0,13,13,5,1,gaze3_plain.png,right,,,,,,,,,,,,,,,,,
,,,,,,,,,asdvknaæksjndvæjn,2024-04-03_16h39.21.690,board game,2021.1.2,MacIntel,62.11180124,,,,,,,,,,,,,,,,,,,,,,,,,,,,,,,,,,,,,,,,,,,,,,,,,,,,,,,,,,e,1,6.4812,0,0,0,4,1,landscape_color_e.png,e,,,,,,,
,,,,,,,,,asdvknaæksjndvæjn,2024-04-03_16h39.21.690,board game,2021.1.2,MacIntel,62.11180124,,,,,,,,,,,,,,,,,,,,,,,,,,,,,,,,,,,,,,,,,,,,,,,,,,,,,,,,,,d,1,3.4603,0,1,1,3,1,landscape_color_d.png,d,,,,,,,
,,,,,,,,,asdvknaæksjndvæjn,2024-04-03_16h39.21.690,board game,2021.1.2,MacIntel,62.11180124,,,,,,,,,,,,,,,,,,,,,,,,,,,,,,,,,,,,,,,,,,,,,,,,,,,,,,,,,,a,1,2.0488,0,2,2,0,1,landscape_color_a.png,a,,,,,,,
,,,,,,,,,asdvknaæksjndvæjn,2024-04-03_16h39.21.690,board game,2021.1.2,MacIntel,62.11180124,,,,,,,,,,,,,,,,,,,,,,,,,,,,,,,,,,,,,,,,,,,,,,,,,,,,,,,,,,f,1,2.9664,0,3,3,5,1,landscape_color_f.png,f,,,,,,,
,,,,,,,,,asdvknaæksjndvæjn,2024-04-03_16h39.21.690,board game,2021.1.2,MacIntel,62.11180124,,,,,,,,,,,,,,,,,,,,,,,,,,,,,,,,,,,,,,,,,,,,,,,,,,,,,,,,,,b,1,3.1786,0,4,4,1,1,landscape_color_b.png,b,,,,,,,
,,,,,,,,,asdvknaæksjndvæjn,2024-04-03_16h39.21.690,board game,2021.1.2,MacIntel,62.11180124,,,,,,,,,,,,,,,,,,,,,,,,,,,,,,,,,,,,,,,,,,,,,,,,,,,,,,,,,,c,1,3.8636,0,5,5,2,1,landscape_color_c.png,c,,,,,,,
,,,,,,,,,asdvknaæksjndvæjn,2024-04-03_16h39.21.690,board game,2021.1.2,MacIntel,62.11180124,,,,,,,,,,,,,,,,,,,,,,,,,,,,,,,,,,,,,,,,,,,,,,,,,,,,,,,,,,,,,,,,,,landscape_black_e.png,e,,0,0,0,0,4,1
,,,,,,,,,asdvknaæksjndvæjn,2024-04-03_16h39.21.690,board game,2021.1.2,MacIntel,62.11180124,,,,,,,,,,,,,,,,,,,,,,,,,,,,,,,,,,,,,,,,,,,,,,,,,,,,,,,,,,,,,,,,,,landscape_black_b.png,b,,0,0,1,1,1,1
,,,,,,,,,asdvknaæksjndvæjn,2024-04-03_16h39.21.690,board game,2021.1.2,MacIntel,62.11180124,,,,,,,,,,,,,,,,,,,,,,,,,,,,,,,,,,,,,,,,,,,,,,,,,,,,,,,,,,,,,,,,,,landscape_black_c.png,c,,0,0,2,2,2,1
,,,,,,,,,asdvknaæksjndvæjn,2024-04-03_16h39.21.690,board game,2021.1.2,MacIntel,62.11180124,,,,,,,,,,,,,,,,,,,,,,,,,,,,,,,,,,,,,,,,,,,,,,,,,,,,,,,,,,,,,,,,,,landscape_black_a.png,a,,0,0,3,3,0,1
,,,,,,,,,asdvknaæksjndvæjn,2024-04-03_16h39.21.690,board game,2021.1.2,MacIntel,62.11180124,,,,,,,,,,,,,,,,,,,,,,,,,,,,,,,,,,,,,,,,,,,,,,,,,,,,,,,,,,,,,,,,,,landscape_black_f.png,f,,0,0,4,4,5,1
,,,,,,,,,asdvknaæksjndvæjn,2024-04-03_16h39.21.690,board game,2021.1.2,MacIntel,62.11180124,,,,,,,,,,,,,,,,,,,,,,,,,,,,,,,,,,,,,,,,,,,,,,,,,,,,,,,,,,,,,,,,,,landscape_black_d.png,d,,0,0,5,5,3,1
