original_character_resp.keys,trials_character_original.thisRepN,trials_character_original.thisTrialN,trials_character_original.thisN,trials_character_original.thisIndex,trials_character_original.ran,original_character_options,correct_character_options,id,date,expName,psychopyVersion,OS,frameRate,edited_character_resp.keys,edited_character_resp.corr,edited_character_resp.rt,trials_character_edited.thisRepN,trials_character_edited.thisTrialN,trials_character_edited.thisN,trials_character_edited.thisIndex,trials_character_edited.ran,edited_character_options,seed_response.keys,seed_response.corr,seed_response.rt,trials_seeds.thisRepN,trials_seeds.thisTrialN,trials_seeds.thisN,trials_seeds.thisIndex,trials_seeds.ran,seed_options,correctSeednumber,tree_response.keys,tree_response.corr,tree_response.rt,trials_tree.thisRepN,trials_tree.thisTrialN,trials_tree.thisN,trials_tree.thisIndex,trials_tree.ran,tree_options,correctTreenumber,token_original_resp.keys,token_original_resp.corr,trials_tokens_original.thisRepN,trials_tokens_original.thisTrialN,trials_tokens_original.thisN,trials_tokens_original.thisIndex,trials_tokens_original.ran,original_token_options,correct_token_options,token_edited_resp.keys,token_edited_resp.corr,token_edited_resp.rt,trials_tokens_edited.thisRepN,trials_tokens_edited.thisTrialN,trials_tokens_edited.thisN,trials_tokens_edited.thisIndex,trials_tokens_edited.ran,edited_token_options,gaze_response.keys,gaze_response.corr,gaze_response.rt,key_resp_6.keys,trials_gaze.thisRepN,trials_gaze.thisTrialN,trials_gaze.thisN,trials_gaze.thisIndex,trials_gaze.ran,options,correctGazeanswer,landscapeA_resp.keys,landscapeA_resp.corr,trials_sight_color.thisRepN,trials_sight_color.thisTrialN,trials_sight_color.thisN,trials_sight_color.thisIndex,trials_sight_color.ran,landscape_options,correct_landscape_options,landscapeB_resp.keys,landscapeB_resp.corr,landscapeB_resp.rt,trials_sight_black.thisRepN,trials_sight_black.thisTrialN,trials_sight_black.thisN,trials_sight_black.thisIndex,trials_sight_black.ran
,0,0,0,1,1,original_hermit.png,b,K5gu78,2024-03-14_10h57.14.640,board game,2021.1.2,MacIntel,60.24096386,,,,,,,,,,,,,,,,,,,,,,,,,,,,,,,,,,,,,,,,,,,,,,,,,,,,,,,,,,,,,,,,,,,,,,,,,,,
,0,1,1,3,1,original_architect.png,d,K5gu78,2024-03-14_10h57.14.640,board game,2021.1.2,MacIntel,60.24096386,,,,,,,,,,,,,,,,,,,,,,,,,,,,,,,,,,,,,,,,,,,,,,,,,,,,,,,,,,,,,,,,,,,,,,,,,,,
,0,2,2,2,1,original_poet.png,c,K5gu78,2024-03-14_10h57.14.640,board game,2021.1.2,MacIntel,60.24096386,,,,,,,,,,,,,,,,,,,,,,,,,,,,,,,,,,,,,,,,,,,,,,,,,,,,,,,,,,,,,,,,,,,,,,,,,,,
,0,3,3,0,1,original_monk.png,a,K5gu78,2024-03-14_10h57.14.640,board game,2021.1.2,MacIntel,60.24096386,,,,,,,,,,,,,,,,,,,,,,,,,,,,,,,,,,,,,,,,,,,,,,,,,,,,,,,,,,,,,,,,,,,,,,,,,,,
,,,,,,,b,K5gu78,2024-03-14_10h57.14.640,board game,2021.1.2,MacIntel,60.24096386,b,1,5.0198,0,0,0,1,1,edited_hermit.png,,,,,,,,,,,,,,,,,,,,,,,,,,,,,,,,,,,,,,,,,,,,,,,,,,,,,,,,,,,,,,,,,,
,,,,,,,c,K5gu78,2024-03-14_10h57.14.640,board game,2021.1.2,MacIntel,60.24096386,a,0,1.791,0,1,1,2,1,edited_poet.png,,,,,,,,,,,,,,,,,,,,,,,,,,,,,,,,,,,,,,,,,,,,,,,,,,,,,,,,,,,,,,,,,,
,,,,,,,a,K5gu78,2024-03-14_10h57.14.640,board game,2021.1.2,MacIntel,60.24096386,b,0,4.9615,0,2,2,0,1,edited_monk.png,,,,,,,,,,,,,,,,,,,,,,,,,,,,,,,,,,,,,,,,,,,,,,,,,,,,,,,,,,,,,,,,,,
,,,,,,,d,K5gu78,2024-03-14_10h57.14.640,board game,2021.1.2,MacIntel,60.24096386,d,1,1.571,0,3,3,3,1,edited_architect.png,,,,,,,,,,,,,,,,,,,,,,,,,,,,,,,,,,,,,,,,,,,,,,,,,,,,,,,,,,,,,,,,,,
,,,,,,,,K5gu78,2024-03-14_10h57.14.640,board game,2021.1.2,MacIntel,60.24096386,,,,,,,,,,4,0,3.1587,0,0,0,12,1,gul_2_grey.png,2,,,,,,,,,,,,,,,,,,,,,,,,,,,,,,,,,,,,,,,,,,,,,,,,,,,,,,,,
,,,,,,,,K5gu78,2024-03-14_10h57.14.640,board game,2021.1.2,MacIntel,60.24096386,,,,,,,,,,4,0,3.7474,0,1,1,8,1,gul_0_grey.png,0,,,,,,,,,,,,,,,,,,,,,,,,,,,,,,,,,,,,,,,,,,,,,,,,,,,,,,,,
,,,,,,,,K5gu78,2024-03-14_10h57.14.640,board game,2021.1.2,MacIntel,60.24096386,,,,,,,,,,4,0,3.3794,0,2,2,10,1,gul_1_grey.png,1,,,,,,,,,,,,,,,,,,,,,,,,,,,,,,,,,,,,,,,,,,,,,,,,,,,,,,,,
,,,,,,,,K5gu78,2024-03-14_10h57.14.640,board game,2021.1.2,MacIntel,60.24096386,,,,,,,,,,4,0,2.2388,0,3,3,6,1,orange_3_grey.png,3,,,,,,,,,,,,,,,,,,,,,,,,,,,,,,,,,,,,,,,,,,,,,,,,,,,,,,,,
,,,,,,,,K5gu78,2024-03-14_10h57.14.640,board game,2021.1.2,MacIntel,60.24096386,,,,,,,,,,1,1,2.9905,0,4,4,2,1,orange_1_grey.png,1,,,,,,,,,,,,,,,,,,,,,,,,,,,,,,,,,,,,,,,,,,,,,,,,,,,,,,,,
,,,,,,,,K5gu78,2024-03-14_10h57.14.640,board game,2021.1.2,MacIntel,60.24096386,,,,,,,,,,3,1,2.9544,0,5,5,14,1,gul_3_grey.png,3,,,,,,,,,,,,,,,,,,,,,,,,,,,,,,,,,,,,,,,,,,,,,,,,,,,,,,,,
,,,,,,,,K5gu78,2024-03-14_10h57.14.640,board game,2021.1.2,MacIntel,60.24096386,,,,,,,,,,2,1,2.1157,0,6,6,5,1,orange_2_original.png,2,,,,,,,,,,,,,,,,,,,,,,,,,,,,,,,,,,,,,,,,,,,,,,,,,,,,,,,,
,,,,,,,,K5gu78,2024-03-14_10h57.14.640,board game,2021.1.2,MacIntel,60.24096386,,,,,,,,,,1,1,1.6824,0,7,7,11,1,gul_1_original.png,1,,,,,,,,,,,,,,,,,,,,,,,,,,,,,,,,,,,,,,,,,,,,,,,,,,,,,,,,
,,,,,,,,K5gu78,2024-03-14_10h57.14.640,board game,2021.1.2,MacIntel,60.24096386,,,,,,,,,,0,1,2.2286,0,8,8,1,1,orange_0_original.png,0,,,,,,,,,,,,,,,,,,,,,,,,,,,,,,,,,,,,,,,,,,,,,,,,,,,,,,,,
,,,,,,,,K5gu78,2024-03-14_10h57.14.640,board game,2021.1.2,MacIntel,60.24096386,,,,,,,,,,3,1,2.2508,0,9,9,15,1,gul_3_original.png,3,,,,,,,,,,,,,,,,,,,,,,,,,,,,,,,,,,,,,,,,,,,,,,,,,,,,,,,,
,,,,,,,,K5gu78,2024-03-14_10h57.14.640,board game,2021.1.2,MacIntel,60.24096386,,,,,,,,,,1,1,1.3651,0,10,10,3,1,orange_1_original.png,1,,,,,,,,,,,,,,,,,,,,,,,,,,,,,,,,,,,,,,,,,,,,,,,,,,,,,,,,
,,,,,,,,K5gu78,2024-03-14_10h57.14.640,board game,2021.1.2,MacIntel,60.24096386,,,,,,,,,,0,1,1.7199,0,11,11,9,1,gul_0_original.png,0,,,,,,,,,,,,,,,,,,,,,,,,,,,,,,,,,,,,,,,,,,,,,,,,,,,,,,,,
,,,,,,,,K5gu78,2024-03-14_10h57.14.640,board game,2021.1.2,MacIntel,60.24096386,,,,,,,,,,0,1,1.2984,0,12,12,0,1,orange_0_grey.png,0,,,,,,,,,,,,,,,,,,,,,,,,,,,,,,,,,,,,,,,,,,,,,,,,,,,,,,,,
,,,,,,,,K5gu78,2024-03-14_10h57.14.640,board game,2021.1.2,MacIntel,60.24096386,,,,,,,,,,3,1,1.5188,0,13,13,7,1,orange_3_original.png,3,,,,,,,,,,,,,,,,,,,,,,,,,,,,,,,,,,,,,,,,,,,,,,,,,,,,,,,,
,,,,,,,,K5gu78,2024-03-14_10h57.14.640,board game,2021.1.2,MacIntel,60.24096386,,,,,,,,,,2,1,1.0829,0,14,14,4,1,orange_2_grey.png,2,,,,,,,,,,,,,,,,,,,,,,,,,,,,,,,,,,,,,,,,,,,,,,,,,,,,,,,,
,,,,,,,,K5gu78,2024-03-14_10h57.14.640,board game,2021.1.2,MacIntel,60.24096386,,,,,,,,,,2,1,0.9361,0,15,15,13,1,gul_2_original.png,2,,,,,,,,,,,,,,,,,,,,,,,,,,,,,,,,,,,,,,,,,,,,,,,,,,,,,,,,
,,,,,,,,K5gu78,2024-03-14_10h57.14.640,board game,2021.1.2,MacIntel,60.24096386,,,,,,,,,,,,,,,,,,,,4,1,4.7098,0,0,0,1,1,original_gulpink2.png,4,,,,,,,,,,,,,,,,,,,,,,,,,,,,,,,,,,,,,,,,,,,,,,
,,,,,,,,K5gu78,2024-03-14_10h57.14.640,board game,2021.1.2,MacIntel,60.24096386,,,,,,,,,,,,,,,,,,,,3,1,3.1039,0,1,1,10,1,edited_green1.png,3,,,,,,,,,,,,,,,,,,,,,,,,,,,,,,,,,,,,,,,,,,,,,,
,,,,,,,,K5gu78,2024-03-14_10h57.14.640,board game,2021.1.2,MacIntel,60.24096386,,,,,,,,,,,,,,,,,,,,4,1,3.4726,0,2,2,3,1,edited_gulpink2.png,4,,,,,,,,,,,,,,,,,,,,,,,,,,,,,,,,,,,,,,,,,,,,,,
,,,,,,,,K5gu78,2024-03-14_10h57.14.640,board game,2021.1.2,MacIntel,60.24096386,,,,,,,,,,,,,,,,,,,,3,1,2.8372,0,3,3,2,1,edited_gulpink1.png,3,,,,,,,,,,,,,,,,,,,,,,,,,,,,,,,,,,,,,,,,,,,,,,
,,,,,,,,K5gu78,2024-03-14_10h57.14.640,board game,2021.1.2,MacIntel,60.24096386,,,,,,,,,,,,,,,,,,,,2,0,3.4228,0,4,4,8,1,original_green1.png,3,,,,,,,,,,,,,,,,,,,,,,,,,,,,,,,,,,,,,,,,,,,,,,
,,,,,,,,K5gu78,2024-03-14_10h57.14.640,board game,2021.1.2,MacIntel,60.24096386,,,,,,,,,,,,,,,,,,,,3,1,4.4397,0,5,5,14,1,edited_orange1.png,3,,,,,,,,,,,,,,,,,,,,,,,,,,,,,,,,,,,,,,,,,,,,,,
,,,,,,,,K5gu78,2024-03-14_10h57.14.640,board game,2021.1.2,MacIntel,60.24096386,,,,,,,,,,,,,,,,,,,,3,0,3.9706,0,6,6,15,1,edited_orange2.png,1,,,,,,,,,,,,,,,,,,,,,,,,,,,,,,,,,,,,,,,,,,,,,,
,,,,,,,,K5gu78,2024-03-14_10h57.14.640,board game,2021.1.2,MacIntel,60.24096386,,,,,,,,,,,,,,,,,,,,2,1,2.8526,0,7,7,4,1,original_blue1.png,2,,,,,,,,,,,,,,,,,,,,,,,,,,,,,,,,,,,,,,,,,,,,,,
,,,,,,,,K5gu78,2024-03-14_10h57.14.640,board game,2021.1.2,MacIntel,60.24096386,,,,,,,,,,,,,,,,,,,,2,1,2.4788,0,8,8,11,1,edited_green2.png,2,,,,,,,,,,,,,,,,,,,,,,,,,,,,,,,,,,,,,,,,,,,,,,
,,,,,,,,K5gu78,2024-03-14_10h57.14.640,board game,2021.1.2,MacIntel,60.24096386,,,,,,,,,,,,,,,,,,,,3,1,3.7054,0,9,9,12,1,original_orange1.png,3,,,,,,,,,,,,,,,,,,,,,,,,,,,,,,,,,,,,,,,,,,,,,,
,,,,,,,,K5gu78,2024-03-14_10h57.14.640,board game,2021.1.2,MacIntel,60.24096386,,,,,,,,,,,,,,,,,,,,4,1,2.697,0,10,10,7,1,edited_blue2.png,4,,,,,,,,,,,,,,,,,,,,,,,,,,,,,,,,,,,,,,,,,,,,,,
,,,,,,,,K5gu78,2024-03-14_10h57.14.640,board game,2021.1.2,MacIntel,60.24096386,,,,,,,,,,,,,,,,,,,,4,1,3.2293,0,11,11,5,1,original_blue2.png,4,,,,,,,,,,,,,,,,,,,,,,,,,,,,,,,,,,,,,,,,,,,,,,
,,,,,,,,K5gu78,2024-03-14_10h57.14.640,board game,2021.1.2,MacIntel,60.24096386,,,,,,,,,,,,,,,,,,,,2,1,3.3798,0,12,12,9,1,original_green2.png,2,,,,,,,,,,,,,,,,,,,,,,,,,,,,,,,,,,,,,,,,,,,,,,
,,,,,,,,K5gu78,2024-03-14_10h57.14.640,board game,2021.1.2,MacIntel,60.24096386,,,,,,,,,,,,,,,,,,,,3,1,2.364,0,13,13,0,1,original_gulpink1.png,3,,,,,,,,,,,,,,,,,,,,,,,,,,,,,,,,,,,,,,,,,,,,,,
,,,,,,,,K5gu78,2024-03-14_10h57.14.640,board game,2021.1.2,MacIntel,60.24096386,,,,,,,,,,,,,,,,,,,,1,1,2.2218,0,14,14,13,1,original_orange2.png,1,,,,,,,,,,,,,,,,,,,,,,,,,,,,,,,,,,,,,,,,,,,,,,
,,,,,,,,K5gu78,2024-03-14_10h57.14.640,board game,2021.1.2,MacIntel,60.24096386,,,,,,,,,,,,,,,,,,,,2,1,2.1018,0,15,15,6,1,edited_blue1.png,2,,,,,,,,,,,,,,,,,,,,,,,,,,,,,,,,,,,,,,,,,,,,,,
,,,,,,,,K5gu78,2024-03-14_10h57.14.640,board game,2021.1.2,MacIntel,60.24096386,,,,,,,,,,,,,,,,,,,,,,,,,,,,,,,0,0,0,0,8,1,original_tokens_greens_n.png,n,,,,,,,,,,,,,,,,,,,,,,,,,,,,,,,,,,,,,
,,,,,,,,K5gu78,2024-03-14_10h57.14.640,board game,2021.1.2,MacIntel,60.24096386,,,,,,,,,,,,,,,,,,,,,,,,,,,,,,,0,0,1,1,9,1,original_tokens_greens_g.png,g,,,,,,,,,,,,,,,,,,,,,,,,,,,,,,,,,,,,,
,,,,,,,,K5gu78,2024-03-14_10h57.14.640,board game,2021.1.2,MacIntel,60.24096386,,,,,,,,,,,,,,,,,,,,,,,,,,,,,,,0,0,2,2,2,1,original_tokens_blues_d.png,d,,,,,,,,,,,,,,,,,,,,,,,,,,,,,,,,,,,,,
,,,,,,,,K5gu78,2024-03-14_10h57.14.640,board game,2021.1.2,MacIntel,60.24096386,,,,,,,,,,,,,,,,,,,,,,,,,,,,,,,0,0,3,3,3,1,original_tokens_blues_b.png,b,,,,,,,,,,,,,,,,,,,,,,,,,,,,,,,,,,,,,
,,,,,,,,K5gu78,2024-03-14_10h57.14.640,board game,2021.1.2,MacIntel,60.24096386,,,,,,,,,,,,,,,,,,,,,,,,,,,,,,,0,0,4,4,1,1,original_tokens_blues_m.png,m,,,,,,,,,,,,,,,,,,,,,,,,,,,,,,,,,,,,,
,,,,,,,,K5gu78,2024-03-14_10h57.14.640,board game,2021.1.2,MacIntel,60.24096386,,,,,,,,,,,,,,,,,,,,,,,,,,,,,,,0,0,5,5,6,1,original_tokens_greens_a.png,a,,,,,,,,,,,,,,,,,,,,,,,,,,,,,,,,,,,,,
,,,,,,,,K5gu78,2024-03-14_10h57.14.640,board game,2021.1.2,MacIntel,60.24096386,,,,,,,,,,,,,,,,,,,,,,,,,,,,,,,0,0,6,6,5,1,original_tokens_greens_h.png,h,,,,,,,,,,,,,,,,,,,,,,,,,,,,,,,,,,,,,
,,,,,,,,K5gu78,2024-03-14_10h57.14.640,board game,2021.1.2,MacIntel,60.24096386,,,,,,,,,,,,,,,,,,,,,,,,,,,,,,,0,0,7,7,0,1,original_tokens_blues_k.png,k,,,,,,,,,,,,,,,,,,,,,,,,,,,,,,,,,,,,,
,,,,,,,,K5gu78,2024-03-14_10h57.14.640,board game,2021.1.2,MacIntel,60.24096386,,,,,,,,,,,,,,,,,,,,,,,,,,,,,,,0,0,8,8,4,1,original_tokens_blues_o.png,o,,,,,,,,,,,,,,,,,,,,,,,,,,,,,,,,,,,,,
,,,,,,,,K5gu78,2024-03-14_10h57.14.640,board game,2021.1.2,MacIntel,60.24096386,,,,,,,,,,,,,,,,,,,,,,,,,,,,,,,0,0,9,9,7,1,original_tokens_greens_e.png,e,,,,,,,,,,,,,,,,,,,,,,,,,,,,,,,,,,,,,
,,,,,,,,K5gu78,2024-03-14_10h57.14.640,board game,2021.1.2,MacIntel,60.24096386,,,,,,,,,,,,,,,,,,,,,,,,,,,,,,,,,,,,,,h,h,1,2.7847,0,0,0,5,1,edited_tokens_greens_h.png,,,,,,,,,,,,,,,,,,,,,,,,,,,,
,,,,,,,,K5gu78,2024-03-14_10h57.14.640,board game,2021.1.2,MacIntel,60.24096386,,,,,,,,,,,,,,,,,,,,,,,,,,,,,,,,,,,,,,m,n,0,3.8011,0,1,1,1,1,edited_tokens_blues_m.png,,,,,,,,,,,,,,,,,,,,,,,,,,,,
,,,,,,,,K5gu78,2024-03-14_10h57.14.640,board game,2021.1.2,MacIntel,60.24096386,,,,,,,,,,,,,,,,,,,,,,,,,,,,,,,,,,,,,,b,b,1,2.5822,0,2,2,3,1,edited_tokens_blues_b.png,,,,,,,,,,,,,,,,,,,,,,,,,,,,
,,,,,,,,K5gu78,2024-03-14_10h57.14.640,board game,2021.1.2,MacIntel,60.24096386,,,,,,,,,,,,,,,,,,,,,,,,,,,,,,,,,,,,,,n,n,1,2.3843,0,3,3,8,1,edited_tokens_greens_n.png,,,,,,,,,,,,,,,,,,,,,,,,,,,,
,,,,,,,,K5gu78,2024-03-14_10h57.14.640,board game,2021.1.2,MacIntel,60.24096386,,,,,,,,,,,,,,,,,,,,,,,,,,,,,,,,,,,,,,k,k,1,2.5994,0,4,4,0,1,edited_tokens_blues_k.png,,,,,,,,,,,,,,,,,,,,,,,,,,,,
,,,,,,,,K5gu78,2024-03-14_10h57.14.640,board game,2021.1.2,MacIntel,60.24096386,,,,,,,,,,,,,,,,,,,,,,,,,,,,,,,,,,,,,,g,g,1,1.9179,0,5,5,9,1,edited_tokens_greens_g.png,,,,,,,,,,,,,,,,,,,,,,,,,,,,
,,,,,,,,K5gu78,2024-03-14_10h57.14.640,board game,2021.1.2,MacIntel,60.24096386,,,,,,,,,,,,,,,,,,,,,,,,,,,,,,,,,,,,,,e,e,1,2.4835,0,6,6,7,1,edited_tokens_greens_e.png,,,,,,,,,,,,,,,,,,,,,,,,,,,,
,,,,,,,,K5gu78,2024-03-14_10h57.14.640,board game,2021.1.2,MacIntel,60.24096386,,,,,,,,,,,,,,,,,,,,,,,,,,,,,,,,,,,,,,a,a,1,2.3114,0,7,7,6,1,edited_tokens_greens_a.png,,,,,,,,,,,,,,,,,,,,,,,,,,,,
,,,,,,,,K5gu78,2024-03-14_10h57.14.640,board game,2021.1.2,MacIntel,60.24096386,,,,,,,,,,,,,,,,,,,,,,,,,,,,,,,,,,,,,,o,o,1,3.0034,0,8,8,4,1,edited_tokens_blues_o.png,,,,,,,,,,,,,,,,,,,,,,,,,,,,
,,,,,,,,K5gu78,2024-03-14_10h57.14.640,board game,2021.1.2,MacIntel,60.24096386,,,,,,,,,,,,,,,,,,,,,,,,,,,,,,,,,,,,,,d,d,1,2.0821,0,9,9,2,1,edited_tokens_blues_d.png,,,,,,,,,,,,,,,,,,,,,,,,,,,,
,,,,,,,,K5gu78,2024-03-14_10h57.14.640,board game,2021.1.2,MacIntel,60.24096386,,,,,,,,,,,,,,,,,,,,,,,,,,,,,,,,,,,,,,,,,,,,,,,,left,1,1.6195,,0,0,0,6,1,gaze4_cue.png,left,,,,,,,,,,,,,,,,,
,,,,,,,,K5gu78,2024-03-14_10h57.14.640,board game,2021.1.2,MacIntel,60.24096386,,,,,,,,,,,,,,,,,,,,,,,,,,,,,,,,,,,,,,,,,,,,,,,,left,1,3.2096,,0,1,1,7,1,gaze4_plain.png,left,,,,,,,,,,,,,,,,,
,,,,,,,,K5gu78,2024-03-14_10h57.14.640,board game,2021.1.2,MacIntel,60.24096386,,,,,,,,,,,,,,,,,,,,,,,,,,,,,,,,,,,,,,,,,,,,,,,,left,1,1.3597,,0,2,2,0,1,gaze1_cue.png,left,,,,,,,,,,,,,,,,,
,,,,,,,,K5gu78,2024-03-14_10h57.14.640,board game,2021.1.2,MacIntel,60.24096386,,,,,,,,,,,,,,,,,,,,,,,,,,,,,,,,,,,,,,,,,,,,,,,,right,1,1.7589,,0,3,3,4,1,gaze3_cue.png,right,,,,,,,,,,,,,,,,,
,,,,,,,,K5gu78,2024-03-14_10h57.14.640,board game,2021.1.2,MacIntel,60.24096386,,,,,,,,,,,,,,,,,,,,,,,,,,,,,,,,,,,,,,,,,,,,,,,,up,0,1.6591,,0,4,4,12,1,gaze7_cue.png,right,,,,,,,,,,,,,,,,,
,,,,,,,,K5gu78,2024-03-14_10h57.14.640,board game,2021.1.2,MacIntel,60.24096386,,,,,,,,,,,,,,,,,,,,,,,,,,,,,,,,,,,,,,,,,,,,,,,,right,1,1.0938,,0,5,5,10,1,gaze6_cue.png,right,,,,,,,,,,,,,,,,,
,,,,,,,,K5gu78,2024-03-14_10h57.14.640,board game,2021.1.2,MacIntel,60.24096386,,,,,,,,,,,,,,,,,,,,,,,,,,,,,,,,,,,,,,,,,,,,,,,,right,1,1.0326,,0,6,6,5,1,gaze3_plain.png,right,,,,,,,,,,,,,,,,,
,,,,,,,,K5gu78,2024-03-14_10h57.14.640,board game,2021.1.2,MacIntel,60.24096386,,,,,,,,,,,,,,,,,,,,,,,,,,,,,,,,,,,,,,,,,,,,,,,,up,1,1.0943,,0,7,7,9,1,gaze5_plain.png,up,,,,,,,,,,,,,,,,,
,,,,,,,,K5gu78,2024-03-14_10h57.14.640,board game,2021.1.2,MacIntel,60.24096386,,,,,,,,,,,,,,,,,,,,,,,,,,,,,,,,,,,,,,,,,,,,,,,,up,0,1.7914,,0,8,8,13,1,gaze7_plain.png,right,,,,,,,,,,,,,,,,,
,,,,,,,,K5gu78,2024-03-14_10h57.14.640,board game,2021.1.2,MacIntel,60.24096386,,,,,,,,,,,,,,,,,,,,,,,,,,,,,,,,,,,,,,,,,,,,,,,,left,1,1.4334,,0,9,9,2,1,gaze2_cue.png,left,,,,,,,,,,,,,,,,,
,,,,,,,,K5gu78,2024-03-14_10h57.14.640,board game,2021.1.2,MacIntel,60.24096386,,,,,,,,,,,,,,,,,,,,,,,,,,,,,,,,,,,,,,,,,,,,,,,,up,1,0.8264,,0,10,10,8,1,gaze5_cue.png,up,,,,,,,,,,,,,,,,,
,,,,,,,,K5gu78,2024-03-14_10h57.14.640,board game,2021.1.2,MacIntel,60.24096386,,,,,,,,,,,,,,,,,,,,,,,,,,,,,,,,,,,,,,,,,,,,,,,,left,1,0.9081,,0,11,11,1,1,gaze1_plain.png,left,,,,,,,,,,,,,,,,,
,,,,,,,,K5gu78,2024-03-14_10h57.14.640,board game,2021.1.2,MacIntel,60.24096386,,,,,,,,,,,,,,,,,,,,,,,,,,,,,,,,,,,,,,,,,,,,,,,,left,1,1.2778,,0,12,12,3,1,gaze2_plain.png,left,,,,,,,,,,,,,,,,,
,,,,,,,,K5gu78,2024-03-14_10h57.14.640,board game,2021.1.2,MacIntel,60.24096386,,,,,,,,,,,,,,,,,,,,,,,,,,,,,,,,,,,,,,,,,,,,,,,,right,1,0.8753,,0,13,13,11,1,gaze6_plain.png,right,,,,,,,,,,,,,,,,,
,,,,,,,,K5gu78,2024-03-14_10h57.14.640,board game,2021.1.2,MacIntel,60.24096386,,,,,,,,,,,,,,,,,,,,,,,,,,,,,,,,,,,,,,,,,,,,,,,,,,,,,,,,,,,,0,0,0,0,5,1,landscape_color_f.png,f,,,,,,,,
,,,,,,,,K5gu78,2024-03-14_10h57.14.640,board game,2021.1.2,MacIntel,60.24096386,,,,,,,,,,,,,,,,,,,,,,,,,,,,,,,,,,,,,,,,,,,,,,,,,,,,,,,,,,,,0,0,1,1,3,1,landscape_color_d.png,d,,,,,,,,
,,,,,,,,K5gu78,2024-03-14_10h57.14.640,board game,2021.1.2,MacIntel,60.24096386,,,,,,,,,,,,,,,,,,,,,,,,,,,,,,,,,,,,,,,,,,,,,,,,,,,,,,,,,,,,0,0,2,2,2,1,landscape_color_c.png,c,,,,,,,,
,,,,,,,,K5gu78,2024-03-14_10h57.14.640,board game,2021.1.2,MacIntel,60.24096386,,,,,,,,,,,,,,,,,,,,,,,,,,,,,,,,,,,,,,,,,,,,,,,,,,,,,,,,,,,,0,0,3,3,1,1,landscape_color_b.png,b,,,,,,,,
,,,,,,,,K5gu78,2024-03-14_10h57.14.640,board game,2021.1.2,MacIntel,60.24096386,,,,,,,,,,,,,,,,,,,,,,,,,,,,,,,,,,,,,,,,,,,,,,,,,,,,,,,,,,,,0,0,4,4,4,1,landscape_color_e.png,e,,,,,,,,
,,,,,,,,K5gu78,2024-03-14_10h57.14.640,board game,2021.1.2,MacIntel,60.24096386,,,,,,,,,,,,,,,,,,,,,,,,,,,,,,,,,,,,,,,,,,,,,,,,,,,,,,,,,,,,0,0,5,5,0,1,landscape_color_a.png,a,,,,,,,,
,,,,,,,,K5gu78,2024-03-14_10h57.14.640,board game,2021.1.2,MacIntel,60.24096386,,,,,,,,,,,,,,,,,,,,,,,,,,,,,,,,,,,,,,,,,,,,,,,,,,,,,,,,,,,,,,,,,,landscape_black_c.png,c,b,0,7.0762,0,0,0,2,1
,,,,,,,,K5gu78,2024-03-14_10h57.14.640,board game,2021.1.2,MacIntel,60.24096386,,,,,,,,,,,,,,,,,,,,,,,,,,,,,,,,,,,,,,,,,,,,,,,,,,,,,,,,,,,,,,,,,,landscape_black_f.png,f,f,1,3.0993,0,1,1,5,1
,,,,,,,,K5gu78,2024-03-14_10h57.14.640,board game,2021.1.2,MacIntel,60.24096386,,,,,,,,,,,,,,,,,,,,,,,,,,,,,,,,,,,,,,,,,,,,,,,,,,,,,,,,,,,,,,,,,,landscape_black_e.png,e,e,1,2.7551,0,2,2,4,1
,,,,,,,,K5gu78,2024-03-14_10h57.14.640,board game,2021.1.2,MacIntel,60.24096386,,,,,,,,,,,,,,,,,,,,,,,,,,,,,,,,,,,,,,,,,,,,,,,,,,,,,,,,,,,,,,,,,,landscape_black_d.png,d,d,1,2.5353,0,3,3,3,1
,,,,,,,,K5gu78,2024-03-14_10h57.14.640,board game,2021.1.2,MacIntel,60.24096386,,,,,,,,,,,,,,,,,,,,,,,,,,,,,,,,,,,,,,,,,,,,,,,,,,,,,,,,,,,,,,,,,,landscape_black_a.png,a,a,1,1.9674,0,4,4,0,1
,,,,,,,,K5gu78,2024-03-14_10h57.14.640,board game,2021.1.2,MacIntel,60.24096386,,,,,,,,,,,,,,,,,,,,,,,,,,,,,,,,,,,,,,,,,,,,,,,,,,,,,,,,,,,,,,,,,,landscape_black_b.png,b,b,1,2.7096,0,5,5,1,1
